USUBJID,RSSEQ,RSDTC,RSDY,RSORRES,RSSTRESC
P00001,1,2023-05-31,150,PD,Stable Disease
P00001,2,2023-01-03,2,PR,Complete Response
P00001,3,2023-05-18,137,SD,Partial Response
P00001,4,2023-07-09,189,CR,Complete Response
P00001,5,2023-04-28,117,SD,Partial Response
P00002,1,2023-07-06,186,CR,Partial Response
P00002,2,2023-03-22,80,SD,Partial Response
P00002,3,2023-04-18,107,PR,Progressive Disease
P00002,4,2023-08-18,229,SD,Progressive Disease
P00002,5,2023-06-07,157,PD,Complete Response
P00003,1,2023-07-01,181,PR,Complete Response
P00003,2,2023-09-29,271,SD,Partial Response
P00003,3,2023-02-24,54,PD,Complete Response
P00003,4,2023-11-17,320,PD,Complete Response
P00003,5,2023-11-18,321,CR,Complete Response
P00004,1,2023-01-30,29,PR,Stable Disease
P00004,2,2023-01-13,12,SD,Stable Disease
P00004,3,2023-03-21,79,PD,Stable Disease
P00004,4,2023-05-04,123,CR,Progressive Disease
P00004,5,2023-06-26,176,SD,Progressive Disease
P00005,1,2023-09-16,258,PR,Stable Disease
P00005,2,2023-10-16,288,PD,Progressive Disease
P00005,3,2023-07-28,208,PD,Complete Response
P00005,4,2023-02-21,51,PD,Stable Disease
P00005,5,2023-08-24,235,SD,Progressive Disease
P00006,1,2023-02-20,50,PR,Complete Response
P00006,2,2023-03-26,84,CR,Progressive Disease
P00006,3,2023-10-02,274,SD,Progressive Disease
P00006,4,2023-08-09,220,PR,Complete Response
P00006,5,2023-12-16,349,SD,Complete Response
P00007,1,2023-04-19,108,CR,Partial Response
P00007,2,2023-07-07,187,PD,Complete Response
P00007,3,2023-02-02,32,SD,Complete Response
P00007,4,2023-12-07,340,SD,Progressive Disease
P00007,5,2023-05-21,140,CR,Progressive Disease
P00008,1,2023-11-26,329,SD,Complete Response
P00008,2,2023-01-01,0,PD,Progressive Disease
P00008,3,2023-05-08,127,CR,Stable Disease
P00008,4,2023-04-18,107,PR,Complete Response
P00008,5,2023-01-02,1,CR,Stable Disease
P00009,1,2023-11-21,324,PR,Progressive Disease
P00009,2,2023-09-19,261,PR,Complete Response
P00009,3,2023-11-17,320,SD,Partial Response
P00009,4,2023-03-16,74,PD,Complete Response
P00009,5,2023-05-06,125,SD,Progressive Disease
P00010,1,2023-07-12,192,SD,Complete Response
P00010,2,2023-11-12,315,CR,Complete Response
P00010,3,2023-04-05,94,CR,Partial Response
P00010,4,2023-10-22,294,PD,Partial Response
P00010,5,2023-04-13,102,PR,Stable Disease
P00011,1,2023-08-27,238,PD,Partial Response
P00011,2,2023-05-27,146,CR,Partial Response
P00011,3,2023-10-12,284,PR,Partial Response
P00011,4,2023-06-05,155,SD,Stable Disease
P00011,5,2023-06-11,161,PR,Partial Response
P00012,1,2023-03-17,75,CR,Complete Response
P00012,2,2023-06-10,160,PR,Complete Response
P00012,3,2023-05-30,149,SD,Progressive Disease
P00012,4,2023-06-15,165,SD,Partial Response
P00012,5,2023-04-09,98,SD,Stable Disease
P00013,1,2023-01-19,18,PD,Progressive Disease
P00013,2,2023-01-10,9,CR,Partial Response
P00013,3,2023-07-26,206,PR,Complete Response
P00013,4,2023-03-14,72,CR,Partial Response
P00013,5,2023-04-22,111,PD,Progressive Disease
P00014,1,2023-03-23,81,CR,Complete Response
P00014,2,2023-03-25,83,CR,Stable Disease
P00014,3,2023-05-21,140,PD,Partial Response
P00014,4,2023-09-08,250,SD,Partial Response
P00014,5,2023-05-11,130,SD,Stable Disease
P00015,1,2023-07-29,209,PD,Stable Disease
P00015,2,2023-12-12,345,PD,Complete Response
P00015,3,2023-05-13,132,CR,Progressive Disease
P00015,4,2023-06-18,168,SD,Progressive Disease
P00015,5,2023-08-19,230,SD,Progressive Disease
P00016,1,2023-02-23,53,CR,Partial Response
P00016,2,2023-08-06,217,PD,Complete Response
P00016,3,2023-06-09,159,SD,Progressive Disease
P00016,4,2023-06-16,166,SD,Complete Response
P00016,5,2023-04-17,106,PR,Complete Response
P00017,1,2023-10-28,300,SD,Complete Response
P00017,2,2023-11-13,316,SD,Partial Response
P00017,3,2023-01-17,16,CR,Complete Response
P00017,4,2023-04-25,114,PD,Stable Disease
P00017,5,2023-09-22,264,PR,Partial Response
P00018,1,2023-06-16,166,PR,Partial Response
P00018,2,2023-05-20,139,PD,Partial Response
P00018,3,2023-03-17,75,SD,Partial Response
P00018,4,2023-06-13,163,PD,Stable Disease
P00018,5,2023-05-03,122,PR,Progressive Disease
P00019,1,2023-04-21,110,PD,Stable Disease
P00019,2,2023-01-10,9,PD,Progressive Disease
P00019,3,2023-07-01,181,CR,Progressive Disease
P00019,4,2023-02-15,45,CR,Stable Disease
P00019,5,2023-04-25,114,SD,Complete Response
P00020,1,2023-08-16,227,PR,Complete Response
P00020,2,2023-12-24,357,PD,Complete Response
P00020,3,2023-03-22,80,SD,Stable Disease
P00020,4,2023-12-08,341,SD,Stable Disease
P00020,5,2023-11-17,320,PR,Partial Response
P00021,1,2023-09-05,247,CR,Complete Response
P00021,2,2023-08-24,235,CR,Progressive Disease
P00021,3,2023-03-13,71,SD,Complete Response
P00021,4,2023-06-04,154,PR,Progressive Disease
P00021,5,2023-03-31,89,PD,Progressive Disease
P00022,1,2023-04-20,109,CR,Stable Disease
P00022,2,2023-09-08,250,PD,Stable Disease
P00022,3,2023-07-20,200,PD,Partial Response
P00022,4,2023-04-07,96,SD,Stable Disease
P00022,5,2023-01-04,3,CR,Stable Disease
P00023,1,2023-11-12,315,PR,Partial Response
P00023,2,2023-10-27,299,SD,Complete Response
P00023,3,2023-08-09,220,PR,Stable Disease
P00023,4,2023-02-10,40,SD,Stable Disease
P00023,5,2023-10-13,285,CR,Stable Disease
P00024,1,2023-08-07,218,CR,Stable Disease
P00024,2,2023-01-11,10,SD,Partial Response
P00024,3,2023-03-18,76,PD,Progressive Disease
P00024,4,2023-01-07,6,CR,Complete Response
P00024,5,2023-01-29,28,PR,Complete Response
P00025,1,2023-12-31,364,PD,Stable Disease
P00025,2,2023-01-19,18,CR,Progressive Disease
P00025,3,2023-01-18,17,SD,Progressive Disease
P00025,4,2023-09-18,260,SD,Progressive Disease
P00025,5,2023-12-19,352,SD,Stable Disease
P00026,1,2023-11-18,321,PR,Partial Response
P00026,2,2023-10-28,300,CR,Complete Response
P00026,3,2023-10-08,280,PR,Partial Response
P00026,4,2023-10-03,275,PD,Progressive Disease
P00026,5,2023-09-24,266,PD,Complete Response
P00027,1,2023-04-15,104,PD,Progressive Disease
P00027,2,2023-06-16,166,PR,Progressive Disease
P00027,3,2023-03-13,71,CR,Complete Response
P00027,4,2023-07-23,203,PR,Complete Response
P00027,5,2023-09-01,243,PD,Stable Disease
P00028,1,2023-07-22,202,SD,Complete Response
P00028,2,2023-03-11,69,CR,Progressive Disease
P00028,3,2023-04-13,102,SD,Partial Response
P00028,4,2023-01-03,2,PR,Partial Response
P00028,5,2023-08-19,230,PR,Complete Response
P00029,1,2023-03-26,84,PD,Complete Response
P00029,2,2023-05-08,127,SD,Complete Response
P00029,3,2023-07-14,194,PD,Partial Response
P00029,4,2023-12-27,360,CR,Complete Response
P00029,5,2023-12-20,353,SD,Complete Response
P00030,1,2023-05-29,148,CR,Progressive Disease
P00030,2,2023-12-02,335,CR,Progressive Disease
P00030,3,2023-07-28,208,PD,Partial Response
P00030,4,2023-09-02,244,SD,Stable Disease
P00030,5,2023-05-11,130,PR,Progressive Disease
P00031,1,2023-09-26,268,PR,Stable Disease
P00031,2,2023-03-04,62,PD,Progressive Disease
P00031,3,2023-07-04,184,SD,Partial Response
P00031,4,2023-07-16,196,SD,Progressive Disease
P00031,5,2023-01-07,6,CR,Progressive Disease
P00032,1,2023-06-25,175,SD,Partial Response
P00032,2,2023-05-20,139,PR,Stable Disease
P00032,3,2023-11-07,310,CR,Stable Disease
P00032,4,2023-08-09,220,PR,Complete Response
P00032,5,2023-07-07,187,PR,Progressive Disease
P00033,1,2023-01-15,14,PR,Stable Disease
P00033,2,2023-10-02,274,PR,Stable Disease
P00033,3,2023-11-04,307,SD,Partial Response
P00033,4,2023-03-10,68,CR,Stable Disease
P00033,5,2023-05-10,129,PR,Complete Response
P00034,1,2023-09-16,258,CR,Stable Disease
P00034,2,2023-06-20,170,CR,Progressive Disease
P00034,3,2023-04-30,119,SD,Complete Response
P00034,4,2023-09-04,246,PR,Complete Response
P00034,5,2023-11-08,311,SD,Partial Response
P00035,1,2023-07-03,183,PD,Partial Response
P00035,2,2023-07-15,195,CR,Progressive Disease
P00035,3,2023-05-22,141,PR,Complete Response
P00035,4,2023-04-09,98,CR,Complete Response
P00035,5,2023-06-22,172,CR,Complete Response
P00036,1,2023-03-05,63,PD,Partial Response
P00036,2,2023-02-11,41,PR,Complete Response
P00036,3,2023-10-24,296,CR,Partial Response
P00036,4,2023-02-10,40,PR,Stable Disease
P00036,5,2023-05-25,144,CR,Partial Response
P00037,1,2023-07-17,197,CR,Complete Response
P00037,2,2023-11-28,331,SD,Complete Response
P00037,3,2023-01-06,5,PD,Partial Response
P00037,4,2023-08-03,214,SD,Partial Response
P00037,5,2023-10-10,282,PR,Complete Response
P00038,1,2023-05-21,140,SD,Complete Response
P00038,2,2023-11-01,304,SD,Stable Disease
P00038,3,2023-07-31,211,PR,Stable Disease
P00038,4,2023-03-08,66,CR,Partial Response
P00038,5,2023-10-04,276,PD,Progressive Disease
P00039,1,2023-05-05,124,PR,Progressive Disease
P00039,2,2023-02-09,39,PD,Stable Disease
P00039,3,2023-11-26,329,PR,Stable Disease
P00039,4,2023-02-22,52,PD,Complete Response
P00039,5,2023-02-20,50,CR,Stable Disease
P00040,1,2023-11-17,320,PD,Stable Disease
P00040,2,2023-04-09,98,PD,Partial Response
P00040,3,2023-06-25,175,CR,Stable Disease
P00040,4,2023-11-17,320,PD,Stable Disease
P00040,5,2023-09-13,255,PD,Stable Disease
P00041,1,2023-11-11,314,CR,Stable Disease
P00041,2,2023-10-01,273,PD,Progressive Disease
P00041,3,2023-12-20,353,PD,Stable Disease
P00041,4,2023-03-13,71,SD,Partial Response
P00041,5,2023-12-30,363,SD,Complete Response
P00042,1,2023-09-03,245,SD,Partial Response
P00042,2,2023-02-10,40,PR,Complete Response
P00042,3,2023-02-05,35,PR,Partial Response
P00042,4,2023-02-19,49,CR,Partial Response
P00042,5,2023-04-18,107,PD,Partial Response
P00043,1,2023-02-28,58,SD,Progressive Disease
P00043,2,2023-04-16,105,PR,Partial Response
P00043,3,2023-11-17,320,SD,Partial Response
P00043,4,2023-11-12,315,CR,Partial Response
P00043,5,2023-12-16,349,CR,Progressive Disease
P00044,1,2023-10-17,289,SD,Complete Response
P00044,2,2023-06-15,165,CR,Stable Disease
P00044,3,2023-06-08,158,CR,Complete Response
P00044,4,2023-10-26,298,SD,Stable Disease
P00044,5,2023-05-04,123,PR,Stable Disease
P00045,1,2023-01-03,2,PD,Partial Response
P00045,2,2023-03-19,77,PD,Complete Response
P00045,3,2023-02-17,47,CR,Partial Response
P00045,4,2023-05-14,133,SD,Partial Response
P00045,5,2023-10-26,298,PR,Partial Response
P00046,1,2023-02-14,44,CR,Complete Response
P00046,2,2023-05-23,142,SD,Stable Disease
P00046,3,2023-05-26,145,PD,Complete Response
P00046,4,2023-12-02,335,PR,Stable Disease
P00046,5,2023-11-30,333,CR,Complete Response
P00047,1,2023-11-09,312,PD,Stable Disease
P00047,2,2023-12-18,351,SD,Partial Response
P00047,3,2023-09-30,272,PD,Complete Response
P00047,4,2023-07-12,192,SD,Partial Response
P00047,5,2023-07-24,204,SD,Partial Response
P00048,1,2023-05-17,136,SD,Partial Response
P00048,2,2023-01-10,9,PR,Complete Response
P00048,3,2023-10-05,277,SD,Stable Disease
P00048,4,2023-05-08,127,PR,Stable Disease
P00048,5,2023-08-23,234,CR,Partial Response
P00049,1,2023-11-05,308,CR,Stable Disease
P00049,2,2023-05-22,141,CR,Progressive Disease
P00049,3,2023-06-13,163,PD,Partial Response
P00049,4,2023-02-27,57,PR,Stable Disease
P00049,5,2023-02-28,58,CR,Progressive Disease
P00050,1,2023-09-14,256,PD,Partial Response
P00050,2,2023-12-17,350,PD,Progressive Disease
P00050,3,2023-11-12,315,CR,Stable Disease
P00050,4,2023-12-27,360,SD,Partial Response
P00050,5,2023-06-08,158,PD,Partial Response
P00051,1,2023-08-19,230,CR,Stable Disease
P00051,2,2023-09-27,269,CR,Complete Response
P00051,3,2023-02-24,54,SD,Progressive Disease
P00051,4,2023-01-12,11,SD,Partial Response
P00051,5,2023-11-29,332,PD,Progressive Disease
P00052,1,2023-01-26,25,PD,Partial Response
P00052,2,2023-08-02,213,PR,Progressive Disease
P00052,3,2023-04-11,100,CR,Complete Response
P00052,4,2023-10-30,302,PR,Complete Response
P00052,5,2023-02-12,42,PR,Stable Disease
P00053,1,2023-11-26,329,CR,Progressive Disease
P00053,2,2023-07-25,205,PD,Progressive Disease
P00053,3,2023-12-30,363,PR,Stable Disease
P00053,4,2023-06-01,151,SD,Complete Response
P00053,5,2023-03-08,66,PR,Complete Response
P00054,1,2023-08-26,237,CR,Progressive Disease
P00054,2,2024-01-01,365,SD,Progressive Disease
P00054,3,2023-07-26,206,SD,Progressive Disease
P00054,4,2023-05-01,120,CR,Complete Response
P00054,5,2023-07-18,198,SD,Progressive Disease
P00055,1,2023-09-09,251,SD,Progressive Disease
P00055,2,2023-04-01,90,SD,Progressive Disease
P00055,3,2023-04-12,101,PD,Progressive Disease
P00055,4,2023-04-19,108,SD,Progressive Disease
P00055,5,2023-01-29,28,CR,Complete Response
P00056,1,2023-03-16,74,PR,Stable Disease
P00056,2,2023-06-16,166,CR,Progressive Disease
P00056,3,2023-08-11,222,PR,Partial Response
P00056,4,2023-10-20,292,PR,Partial Response
P00056,5,2023-03-27,85,CR,Complete Response
P00057,1,2023-07-08,188,SD,Stable Disease
P00057,2,2023-04-17,106,SD,Stable Disease
P00057,3,2023-12-07,340,SD,Complete Response
P00057,4,2023-03-09,67,CR,Progressive Disease
P00057,5,2023-07-06,186,SD,Complete Response
P00058,1,2023-07-31,211,CR,Stable Disease
P00058,2,2023-08-18,229,CR,Stable Disease
P00058,3,2023-12-21,354,CR,Progressive Disease
P00058,4,2023-09-10,252,PD,Progressive Disease
P00058,5,2023-10-21,293,PR,Partial Response
P00059,1,2023-04-10,99,PR,Complete Response
P00059,2,2023-01-25,24,PR,Partial Response
P00059,3,2023-07-30,210,PR,Partial Response
P00059,4,2023-01-21,20,PR,Complete Response
P00059,5,2023-11-06,309,PR,Partial Response
P00060,1,2023-04-17,106,CR,Complete Response
P00060,2,2023-01-19,18,PD,Progressive Disease
P00060,3,2023-08-23,234,PR,Progressive Disease
P00060,4,2023-12-24,357,PR,Partial Response
P00060,5,2023-06-07,157,SD,Progressive Disease
P00061,1,2023-03-23,81,SD,Partial Response
P00061,2,2023-11-04,307,PD,Partial Response
P00061,3,2023-10-19,291,SD,Stable Disease
P00061,4,2023-03-29,87,PD,Stable Disease
P00061,5,2023-11-11,314,SD,Progressive Disease
P00062,1,2023-12-17,350,CR,Progressive Disease
P00062,2,2023-06-13,163,PR,Stable Disease
P00062,3,2023-04-15,104,PD,Complete Response
P00062,4,2023-01-25,24,SD,Progressive Disease
P00062,5,2023-09-18,260,PD,Complete Response
P00063,1,2023-05-25,144,PD,Partial Response
P00063,2,2023-06-17,167,CR,Partial Response
P00063,3,2023-02-16,46,CR,Stable Disease
P00063,4,2023-11-17,320,PD,Stable Disease
P00063,5,2023-07-05,185,PD,Progressive Disease
P00064,1,2023-03-11,69,SD,Progressive Disease
P00064,2,2023-06-15,165,CR,Complete Response
P00064,3,2023-02-21,51,PD,Stable Disease
P00064,4,2023-02-02,32,SD,Partial Response
P00064,5,2023-04-12,101,CR,Partial Response
P00065,1,2023-06-16,166,SD,Progressive Disease
P00065,2,2023-05-10,129,PD,Progressive Disease
P00065,3,2023-07-09,189,PR,Partial Response
P00065,4,2023-06-03,153,SD,Complete Response
P00065,5,2023-04-23,112,PD,Stable Disease
P00066,1,2023-08-01,212,CR,Partial Response
P00066,2,2023-08-11,222,PR,Partial Response
P00066,3,2023-06-05,155,CR,Stable Disease
P00066,4,2023-04-19,108,SD,Stable Disease
P00066,5,2023-09-30,272,CR,Stable Disease
P00067,1,2023-04-05,94,PD,Progressive Disease
P00067,2,2023-07-08,188,PR,Stable Disease
P00067,3,2023-12-27,360,CR,Partial Response
P00067,4,2023-02-16,46,SD,Stable Disease
P00067,5,2023-03-19,77,SD,Stable Disease
P00068,1,2023-05-16,135,CR,Progressive Disease
P00068,2,2023-03-19,77,PR,Partial Response
P00068,3,2023-11-18,321,SD,Progressive Disease
P00068,4,2023-06-09,159,CR,Stable Disease
P00068,5,2023-09-24,266,PD,Complete Response
P00069,1,2023-02-19,49,CR,Partial Response
P00069,2,2023-08-05,216,CR,Complete Response
P00069,3,2023-03-26,84,CR,Complete Response
P00069,4,2023-02-02,32,CR,Complete Response
P00069,5,2023-07-30,210,PR,Complete Response
P00070,1,2023-02-23,53,PD,Partial Response
P00070,2,2023-01-14,13,PR,Progressive Disease
P00070,3,2023-06-22,172,PD,Progressive Disease
P00070,4,2023-07-12,192,PD,Progressive Disease
P00070,5,2023-02-18,48,PD,Partial Response
P00071,1,2023-12-03,336,PD,Stable Disease
P00071,2,2023-09-01,243,PR,Stable Disease
P00071,3,2023-07-20,200,CR,Progressive Disease
P00071,4,2023-06-14,164,CR,Complete Response
P00071,5,2023-07-11,191,CR,Progressive Disease
P00072,1,2023-09-01,243,PD,Stable Disease
P00072,2,2023-11-10,313,PR,Partial Response
P00072,3,2023-02-11,41,PR,Progressive Disease
P00072,4,2023-07-05,185,CR,Stable Disease
P00072,5,2023-03-31,89,PR,Progressive Disease
P00073,1,2023-10-31,303,PR,Partial Response
P00073,2,2023-07-28,208,PR,Stable Disease
P00073,3,2023-05-20,139,CR,Partial Response
P00073,4,2023-08-25,236,SD,Progressive Disease
P00073,5,2023-09-22,264,CR,Stable Disease
P00074,1,2023-11-08,311,PD,Stable Disease
P00074,2,2023-09-24,266,PD,Partial Response
P00074,3,2023-03-17,75,CR,Progressive Disease
P00074,4,2023-08-06,217,PR,Complete Response
P00074,5,2023-04-16,105,SD,Partial Response
P00075,1,2023-05-25,144,SD,Stable Disease
P00075,2,2023-10-31,303,PR,Partial Response
P00075,3,2023-11-25,328,PR,Partial Response
P00075,4,2023-08-02,213,SD,Partial Response
P00075,5,2023-01-07,6,PR,Stable Disease
P00076,1,2023-07-22,202,PR,Stable Disease
P00076,2,2023-02-26,56,SD,Progressive Disease
P00076,3,2023-04-05,94,CR,Complete Response
P00076,4,2023-10-11,283,PR,Complete Response
P00076,5,2023-05-22,141,SD,Stable Disease
P00077,1,2023-07-02,182,PR,Progressive Disease
P00077,2,2023-06-16,166,CR,Progressive Disease
P00077,3,2023-06-30,180,SD,Progressive Disease
P00077,4,2023-02-11,41,SD,Progressive Disease
P00077,5,2023-11-26,329,SD,Stable Disease
P00078,1,2023-06-17,167,CR,Complete Response
P00078,2,2023-07-02,182,PR,Progressive Disease
P00078,3,2023-10-03,275,PD,Progressive Disease
P00078,4,2023-07-19,199,SD,Partial Response
P00078,5,2023-04-04,93,PR,Complete Response
P00079,1,2023-12-09,342,PR,Progressive Disease
P00079,2,2023-01-07,6,CR,Stable Disease
P00079,3,2023-01-14,13,SD,Partial Response
P00079,4,2023-12-17,350,CR,Partial Response
P00079,5,2023-02-04,34,PD,Partial Response
P00080,1,2023-07-09,189,CR,Partial Response
P00080,2,2023-01-17,16,PD,Stable Disease
P00080,3,2023-11-17,320,PR,Complete Response
P00080,4,2023-03-16,74,CR,Partial Response
P00080,5,2023-02-13,43,PD,Stable Disease
P00081,1,2023-02-09,39,PD,Partial Response
P00081,2,2023-02-23,53,PD,Partial Response
P00081,3,2023-10-31,303,SD,Complete Response
P00081,4,2023-07-27,207,PR,Stable Disease
P00081,5,2023-05-23,142,PR,Progressive Disease
P00082,1,2023-07-15,195,SD,Stable Disease
P00082,2,2023-05-03,122,CR,Stable Disease
P00082,3,2023-09-09,251,CR,Complete Response
P00082,4,2023-02-03,33,PD,Partial Response
P00082,5,2023-03-28,86,PR,Progressive Disease
P00083,1,2023-05-14,133,SD,Stable Disease
P00083,2,2023-01-30,29,PD,Stable Disease
P00083,3,2023-03-21,79,PD,Progressive Disease
P00083,4,2023-03-07,65,PD,Progressive Disease
P00083,5,2023-07-13,193,PD,Stable Disease
P00084,1,2023-06-11,161,CR,Complete Response
P00084,2,2023-02-07,37,PR,Partial Response
P00084,3,2023-09-09,251,CR,Partial Response
P00084,4,2023-07-17,197,PR,Stable Disease
P00084,5,2023-09-20,262,SD,Complete Response
P00085,1,2023-06-16,166,PD,Progressive Disease
P00085,2,2023-04-25,114,SD,Stable Disease
P00085,3,2023-07-04,184,PR,Partial Response
P00085,4,2023-09-20,262,PD,Progressive Disease
P00085,5,2023-04-08,97,PR,Stable Disease
P00086,1,2023-10-18,290,PD,Progressive Disease
P00086,2,2023-07-10,190,PD,Progressive Disease
P00086,3,2023-04-25,114,PD,Complete Response
P00086,4,2023-03-21,79,CR,Partial Response
P00086,5,2023-12-17,350,SD,Partial Response
P00087,1,2023-08-01,212,PR,Progressive Disease
P00087,2,2023-07-16,196,SD,Complete Response
P00087,3,2023-02-27,57,CR,Stable Disease
P00087,4,2023-06-17,167,CR,Partial Response
P00087,5,2023-09-01,243,SD,Progressive Disease
P00088,1,2023-02-18,48,SD,Complete Response
P00088,2,2023-08-16,227,PD,Progressive Disease
P00088,3,2023-03-10,68,PD,Complete Response
P00088,4,2023-05-12,131,CR,Complete Response
P00088,5,2023-12-26,359,CR,Stable Disease
P00089,1,2023-03-09,67,PD,Stable Disease
P00089,2,2023-01-25,24,PR,Stable Disease
P00089,3,2023-05-31,150,PR,Complete Response
P00089,4,2023-05-17,136,PR,Progressive Disease
P00089,5,2023-12-01,334,PD,Complete Response
P00090,1,2023-12-14,347,SD,Progressive Disease
P00090,2,2023-07-29,209,PR,Complete Response
P00090,3,2023-11-30,333,SD,Partial Response
P00090,4,2023-10-19,291,PR,Stable Disease
P00090,5,2023-01-07,6,CR,Stable Disease
P00091,1,2023-11-29,332,CR,Stable Disease
P00091,2,2023-12-09,342,CR,Complete Response
P00091,3,2023-01-05,4,PD,Complete Response
P00091,4,2023-10-30,302,PD,Progressive Disease
P00091,5,2023-10-30,302,CR,Progressive Disease
P00092,1,2023-04-26,115,CR,Progressive Disease
P00092,2,2023-04-10,99,PD,Partial Response
P00092,3,2023-12-08,341,SD,Progressive Disease
P00092,4,2023-02-25,55,PR,Stable Disease
P00092,5,2023-03-04,62,SD,Partial Response
P00093,1,2023-10-16,288,PR,Progressive Disease
P00093,2,2023-05-06,125,PD,Partial Response
P00093,3,2023-09-28,270,PR,Complete Response
P00093,4,2023-07-23,203,PD,Complete Response
P00093,5,2023-04-14,103,PR,Partial Response
P00094,1,2023-08-25,236,CR,Complete Response
P00094,2,2023-09-05,247,SD,Partial Response
P00094,3,2023-02-14,44,PD,Partial Response
P00094,4,2023-02-18,48,PR,Complete Response
P00094,5,2023-05-23,142,PR,Progressive Disease
P00095,1,2023-06-03,153,SD,Stable Disease
P00095,2,2023-06-14,164,PR,Complete Response
P00095,3,2023-07-12,192,PD,Progressive Disease
P00095,4,2023-01-20,19,SD,Stable Disease
P00095,5,2023-12-30,363,SD,Complete Response
P00096,1,2023-03-01,59,SD,Partial Response
P00096,2,2023-03-22,80,PR,Partial Response
P00096,3,2023-02-14,44,SD,Partial Response
P00096,4,2023-04-11,100,PR,Stable Disease
P00096,5,2023-08-08,219,SD,Complete Response
P00097,1,2023-10-07,279,SD,Stable Disease
P00097,2,2023-01-11,10,PR,Progressive Disease
P00097,3,2023-05-02,121,PR,Complete Response
P00097,4,2023-06-18,168,PD,Partial Response
P00097,5,2023-10-22,294,SD,Complete Response
P00098,1,2023-07-18,198,PD,Progressive Disease
P00098,2,2023-06-24,174,PD,Stable Disease
P00098,3,2023-01-16,15,PD,Partial Response
P00098,4,2023-09-06,248,PD,Partial Response
P00098,5,2023-09-04,246,SD,Progressive Disease
P00099,1,2023-03-29,87,CR,Complete Response
P00099,2,2023-07-26,206,PD,Stable Disease
P00099,3,2023-12-17,350,CR,Stable Disease
P00099,4,2023-11-05,308,PD,Progressive Disease
P00099,5,2023-06-28,178,CR,Partial Response
P00100,1,2023-10-25,297,CR,Stable Disease
P00100,2,2023-05-25,144,CR,Partial Response
P00100,3,2023-08-16,227,PR,Progressive Disease
P00100,4,2023-05-01,120,PD,Progressive Disease
P00100,5,2023-06-30,180,PD,Progressive Disease
