USUBJID,TRSEQ,TRDTC,TRDY,TRLINKID,TRORRES,TRSTRESC
P00001,1,2023-09-05,247,TUMOR001,4.978745245204965,1.0035664804488116
P00001,2,2023-05-29,148,TUMOR001,3.6599513324332973,2.0034013067935375
P00001,3,2023-08-14,225,TUMOR001,5.671928140661073,4.687483970594858
P00001,4,2023-08-19,230,TUMOR001,7.267016998993735,7.492966706734748
P00001,5,2023-06-13,163,TUMOR001,6.812218819468009,4.750659677467864
P00001,1,2023-03-25,83,TUMOR002,6.930315464169564,6.649079257802832
P00001,2,2023-09-15,257,TUMOR002,1.8102223074942956,0.6746183538809081
P00001,3,2023-02-28,58,TUMOR002,9.137139269546564,6.101813518124733
P00001,4,2023-04-25,114,TUMOR002,3.7883722527914503,5.320736923872796
P00001,5,2023-02-25,55,TUMOR002,5.067039565622145,8.480041345049763
P00001,1,2023-12-21,354,TUMOR003,4.880092736691906,0.5356801644788514
P00001,2,2023-05-25,144,TUMOR003,3.0274565093258414,1.3469630261238459
P00001,3,2023-11-15,318,TUMOR003,5.819667607178835,2.457421789512039
P00001,4,2023-10-14,286,TUMOR003,7.192423357947054,8.840031957263403
P00001,5,2023-11-29,332,TUMOR003,5.152622605462209,8.180843859592143
P00002,1,2023-04-02,91,TUMOR001,6.191851686984855,1.7748153435093883
P00002,2,2023-01-10,9,TUMOR001,4.2137263513869865,8.899521181557935
P00002,3,2023-06-25,175,TUMOR001,2.4278072162416247,4.276599294129174
P00002,4,2023-04-03,92,TUMOR001,6.605068999411374,2.3229214201848563
P00002,5,2023-07-07,187,TUMOR001,2.052215452558442,6.322836894305718
P00003,1,2023-05-28,147,TUMOR001,6.344785175069037,2.513402898544695
P00003,2,2023-04-12,101,TUMOR001,6.6016130569704226,0.9384210800064966
P00003,3,2023-09-24,266,TUMOR001,8.498381976131089,6.095983436697679
P00003,4,2023-02-07,37,TUMOR001,6.165367826787483,1.3736658541995255
P00003,5,2023-06-19,169,TUMOR001,5.319060658532283,8.933770110051345
P00004,1,2023-12-29,362,TUMOR001,5.363151682784208,7.085260147858317
P00004,2,2023-01-05,4,TUMOR001,5.1894057445169635,8.442938320875477
P00004,3,2023-08-06,217,TUMOR001,7.984666560740114,0.8154660429881571
P00004,4,2023-09-22,264,TUMOR001,2.305168936409549,5.679712473856787
P00004,5,2023-04-19,108,TUMOR001,7.723354131412155,5.297304548214253
P00004,1,2023-10-22,294,TUMOR002,1.8475212566642691,1.2058258563210287
P00004,2,2023-12-16,349,TUMOR002,1.226485053925902,0.6479849485406624
P00004,3,2023-11-11,314,TUMOR002,3.5386699327492783,1.3911061949516483
P00004,4,2023-01-25,24,TUMOR002,1.7039334992233124,8.436279214426555
P00004,5,2023-08-10,221,TUMOR002,9.37957127894977,3.1392896240059325
P00004,1,2023-09-09,251,TUMOR003,4.651492311425439,8.78956938427176
P00004,2,2023-06-20,170,TUMOR003,2.5025971908283577,6.295962494940534
P00004,3,2023-05-06,125,TUMOR003,6.15564445453838,5.629299152811409
P00004,4,2023-08-10,221,TUMOR003,5.9297984439989655,6.622766391029018
P00004,5,2023-08-02,213,TUMOR003,3.688082471890464,3.473068215898898
P00005,1,2023-01-01,0,TUMOR001,4.121882777891878,3.0447837471651154
P00005,2,2023-09-19,261,TUMOR001,7.509409432287535,7.179477062771129
P00005,3,2023-05-26,145,TUMOR001,3.9201656722098677,1.2345804823794795
P00005,4,2023-11-30,333,TUMOR001,2.064990277826661,7.714132578589135
P00005,5,2023-11-10,313,TUMOR001,6.240045729546036,3.8044738380395735
P00005,1,2023-01-06,5,TUMOR002,1.855240001420905,7.96287494752047
P00005,2,2023-06-29,179,TUMOR002,6.028039113579637,8.165853396759044
P00005,3,2023-06-11,161,TUMOR002,8.679837585538621,7.717022440931593
P00005,4,2023-04-02,91,TUMOR002,4.473787456584989,2.3553565360203685
P00005,5,2023-03-28,86,TUMOR002,1.1835283270392174,3.385055738625155
P00005,1,2023-11-05,308,TUMOR003,0.7600104109237436,5.992843214514599
P00005,2,2023-07-10,190,TUMOR003,4.621260040653816,0.6776114710335641
P00005,3,2023-08-08,219,TUMOR003,4.501222017833881,4.861211043018691
P00005,4,2023-01-25,24,TUMOR003,4.328355798999578,4.651878135100497
P00005,5,2023-01-08,7,TUMOR003,7.495320198312709,3.2982974314884275
P00005,1,2023-09-30,272,TUMOR004,9.269714912772125,8.46132045454068
P00005,2,2023-12-28,361,TUMOR004,5.126874580820007,6.303014938935248
P00005,3,2023-05-13,132,TUMOR004,1.4824261273149522,0.7751223462487222
P00005,4,2023-12-20,353,TUMOR004,1.2992693814687057,2.99357860798174
P00005,5,2023-07-25,205,TUMOR004,6.231532186071205,6.618280243556077
P00005,1,2023-02-07,37,TUMOR005,1.1800868534355342,7.928310644044791
P00005,2,2023-06-05,155,TUMOR005,9.138851297088271,2.5037815192568535
P00005,3,2023-09-29,271,TUMOR005,0.6271742328071696,8.714596349704353
P00005,4,2023-10-13,285,TUMOR005,1.2439802744693278,7.966151740336454
P00005,5,2023-03-28,86,TUMOR005,7.622355705294562,7.640947135101516
P00006,1,2023-12-12,345,TUMOR001,7.307675706370412,2.516885266033108
P00006,2,2023-07-16,196,TUMOR001,7.235917467839672,8.869430209293625
P00006,3,2023-04-14,103,TUMOR001,6.9392012888264105,3.7199639686116486
P00006,4,2023-05-07,126,TUMOR001,2.119844671435219,3.92734076254234
P00006,5,2023-01-14,13,TUMOR001,6.771100047064197,2.5565345280675804
P00007,1,2023-03-02,60,TUMOR001,1.777145405815404,1.6175398943297035
P00007,2,2023-07-01,181,TUMOR001,2.9539512901639493,9.32370390090086
P00007,3,2023-05-08,127,TUMOR001,8.163379174288727,7.989025085917868
P00007,4,2023-01-19,18,TUMOR001,5.181698192542464,4.751200271579311
P00007,5,2023-10-19,291,TUMOR001,7.688428687945349,5.3104339468526645
P00008,1,2023-10-03,275,TUMOR001,1.6720584071507463,2.230755344379731
P00008,2,2023-07-22,202,TUMOR001,3.8870286570660286,2.3171361030407835
P00008,3,2023-10-14,286,TUMOR001,8.276925644427438,7.5763096057132735
P00008,4,2023-03-11,69,TUMOR001,2.215544699900493,7.311577419611928
P00008,5,2023-07-21,201,TUMOR001,7.815530574017139,3.5576176505365553
P00008,1,2023-09-23,265,TUMOR002,1.940257687601768,2.975631414068302
P00008,2,2023-02-13,43,TUMOR002,4.695167189172623,9.528471757301691
P00008,3,2023-03-22,80,TUMOR002,4.534601124153808,2.2526203424944926
P00008,4,2023-04-20,109,TUMOR002,1.4485940669684636,8.38529507438734
P00008,5,2023-12-26,359,TUMOR002,3.774977588264238,4.182369169033429
P00009,1,2023-08-02,213,TUMOR001,6.318015200810614,6.132947439707636
P00009,2,2023-01-01,0,TUMOR001,5.164916350899859,0.7595680749094854
P00009,3,2023-03-10,68,TUMOR001,1.0196937663943255,7.883532660438336
P00009,4,2023-01-08,7,TUMOR001,5.570399674121066,9.1738274883692
P00009,5,2023-11-19,322,TUMOR001,7.485555185024657,2.8822676560283624
P00010,1,2023-04-23,112,TUMOR001,5.0579424181804855,2.108214368226723
P00010,2,2023-05-08,127,TUMOR001,7.94074686015754,8.02774273786083
P00010,3,2023-07-02,182,TUMOR001,9.611657004354266,6.557242907077311
P00010,4,2023-05-21,140,TUMOR001,1.618359025107301,1.6941987243435324
P00010,5,2023-09-23,265,TUMOR001,6.696565218872886,2.26696982303268
P00010,1,2023-01-12,11,TUMOR002,9.354451160389349,6.298402497903864
P00010,2,2023-11-30,333,TUMOR002,8.740373480864026,9.242491537388545
P00010,3,2023-01-03,2,TUMOR002,1.0993245715702202,9.430945817288036
P00010,4,2023-07-19,199,TUMOR002,8.813120580366466,1.5803404551863691
P00010,5,2023-05-17,136,TUMOR002,5.969431717906506,1.730449575025174
P00010,1,2023-11-22,325,TUMOR003,6.754598938026734,2.019661744143864
P00010,2,2024-01-01,365,TUMOR003,2.4457553039177133,7.13601090132227
P00010,3,2023-06-05,155,TUMOR003,9.75858191123597,2.8573932999414207
P00010,4,2023-11-12,315,TUMOR003,9.373621813091711,6.846158438267013
P00010,5,2023-07-25,205,TUMOR003,2.8443558822673602,4.713881483700372
P00011,1,2023-08-17,228,TUMOR001,2.4526379570743098,9.66190929522472
P00011,2,2023-07-24,204,TUMOR001,1.5634972561546099,4.593917682311053
P00011,3,2023-03-15,73,TUMOR001,4.803743095665322,2.0333979868131995
P00011,4,2023-04-20,109,TUMOR001,2.7182286441301757,8.148437032399553
P00011,5,2023-04-12,101,TUMOR001,7.414430440517774,0.6009898277464392
P00011,1,2023-04-13,102,TUMOR002,4.6998372325842235,3.651645818763458
P00011,2,2023-04-17,106,TUMOR002,3.5335267486111683,4.950093948633966
P00011,3,2023-07-08,188,TUMOR002,1.8595519438233183,4.441500160585046
P00011,4,2023-07-22,202,TUMOR002,4.417644122269037,0.9897095207476408
P00011,5,2023-10-28,300,TUMOR002,6.371084522526634,8.272761042878251
P00011,1,2023-06-16,166,TUMOR003,2.227223784147095,6.401196677493705
P00011,2,2023-11-14,317,TUMOR003,6.644528913092647,3.316044374252186
P00011,3,2023-08-04,215,TUMOR003,3.898757587704329,4.295523048913211
P00011,4,2023-06-15,165,TUMOR003,5.446386880236832,1.5158871369761935
P00011,5,2023-10-23,295,TUMOR003,2.5138357277488796,8.548853660576409
P00012,1,2023-07-01,181,TUMOR001,9.397799317829726,6.132358314595163
P00012,2,2023-12-06,339,TUMOR001,7.568036414224565,6.496569989141793
P00012,3,2023-11-28,331,TUMOR001,5.348040639201641,4.205502626611686
P00012,4,2023-08-16,227,TUMOR001,2.4280745458696655,2.6373817838360676
P00012,5,2023-01-10,9,TUMOR001,7.985241968051943,7.119482256960459
P00012,1,2023-07-14,194,TUMOR002,8.243479842767973,8.034615786545523
P00012,2,2023-11-18,321,TUMOR002,9.219515463188857,1.3510590031098624
P00012,3,2023-04-16,105,TUMOR002,5.540594109138862,3.3100044153306754
P00012,4,2023-08-27,238,TUMOR002,8.909663870488652,8.934840855285348
P00012,5,2023-07-24,204,TUMOR002,1.687114647447971,3.9083046751054025
P00013,1,2023-12-19,352,TUMOR001,9.89757947978787,4.986711130363521
P00013,2,2023-08-24,235,TUMOR001,5.716168779793332,9.80117575377137
P00013,3,2023-05-20,139,TUMOR001,0.8243119670058996,8.912828541447873
P00013,4,2023-07-05,185,TUMOR001,9.788092452497468,4.923177307384659
P00013,5,2023-03-22,80,TUMOR001,3.629800581785429,2.453947893840629
P00013,1,2023-07-16,196,TUMOR002,2.976594403247935,3.7875147232421713
P00013,2,2023-10-23,295,TUMOR002,6.322797521169539,6.880489164959731
P00013,3,2023-04-20,109,TUMOR002,9.254402597672147,4.202091566190587
P00013,4,2023-05-21,140,TUMOR002,0.8658073869269871,9.208602594677236
P00013,5,2023-02-25,55,TUMOR002,1.4495127328968263,7.080920123108444
P00013,1,2023-09-27,269,TUMOR003,9.363717666408874,8.666133602630895
P00013,2,2023-11-15,318,TUMOR003,5.8459852868130655,6.682816401612273
P00013,3,2023-03-13,71,TUMOR003,1.2189836475015021,2.593873635580179
P00013,4,2023-09-21,263,TUMOR003,1.6055505630498363,5.02705933502454
P00013,5,2023-10-13,285,TUMOR003,2.505715268978844,0.9075366617457366
P00013,1,2023-02-24,54,TUMOR004,6.215790021205752,1.1100520364971405
P00013,2,2023-02-04,34,TUMOR004,4.2581056472988905,1.319580831444209
P00013,3,2023-10-01,273,TUMOR004,2.1687531881125772,2.4515302238127936
P00013,4,2023-10-29,301,TUMOR004,6.375579336760751,7.191134317742462
P00013,5,2023-08-25,236,TUMOR004,0.615995419488647,8.149496129075505
P00014,1,2023-06-01,151,TUMOR001,6.5438276217926905,6.758460267240422
P00014,2,2023-09-09,251,TUMOR001,8.585613546821873,4.505553814107694
P00014,3,2023-04-07,96,TUMOR001,7.834572354029455,6.448754415861915
P00014,4,2023-01-07,6,TUMOR001,8.020097416486863,3.998156467713547
P00014,5,2023-07-31,211,TUMOR001,7.326524426260255,7.423950506050496
P00015,1,2023-01-04,3,TUMOR001,6.421676872322427,2.5710185941965737
P00015,2,2023-05-27,146,TUMOR001,5.4213463107430915,1.1136355529420718
P00015,3,2023-12-01,334,TUMOR001,9.07345706083722,0.7801151421217971
P00015,4,2023-08-21,232,TUMOR001,5.80998919749951,3.89417503424126
P00015,5,2023-06-29,179,TUMOR001,1.5387315948339888,5.505616519881314
P00015,1,2023-01-28,27,TUMOR002,7.673175334048648,6.42879401687102
P00015,2,2023-03-08,66,TUMOR002,2.7758756102954054,9.44866242946587
P00015,3,2023-08-28,239,TUMOR002,5.577745134320368,7.97147070497656
P00015,4,2023-08-20,231,TUMOR002,4.56890152771581,1.9020906348678714
P00015,5,2023-06-23,173,TUMOR002,6.330690260840478,7.152132496088189
P00016,1,2023-07-18,198,TUMOR001,9.33186943735383,6.160814309430497
P00016,2,2023-08-26,237,TUMOR001,9.889360612400184,8.156664479653497
P00016,3,2023-02-13,43,TUMOR001,1.0501481799883037,5.383769477888983
P00016,4,2023-12-30,363,TUMOR001,7.4552359415999225,6.503142272264984
P00016,5,2023-04-27,116,TUMOR001,7.613585411844959,2.2051304525772686
P00016,1,2023-04-09,98,TUMOR002,3.1219635706613986,7.113355064753393
P00016,2,2023-10-25,297,TUMOR002,6.661332170734875,1.7526951853911603
P00016,3,2023-01-24,23,TUMOR002,4.859680557410785,3.7029818983694174
P00016,4,2023-05-29,148,TUMOR002,8.591324753411868,7.48191996755241
P00016,5,2023-11-09,312,TUMOR002,3.891966084791095,7.246203003881389
P00017,1,2023-04-23,112,TUMOR001,0.685998377164591,2.4111566777317863
P00017,2,2023-09-19,261,TUMOR001,4.86255940528723,3.4238544633186483
P00017,3,2023-03-14,72,TUMOR001,4.883734406851811,2.5650582944613194
P00017,4,2023-10-07,279,TUMOR001,5.311218445106739,8.179479433793126
P00017,5,2023-12-30,363,TUMOR001,4.617354941066636,8.641937595047166
P00017,1,2023-08-07,218,TUMOR002,4.298586021944775,1.7041328767849344
P00017,2,2023-07-03,183,TUMOR002,5.811915930130774,7.824874881742871
P00017,3,2023-10-06,278,TUMOR002,1.3996109959618177,6.308593089010207
P00017,4,2023-05-07,126,TUMOR002,7.714496668095271,6.5008010489726855
P00017,5,2023-06-08,158,TUMOR002,9.89904828513245,2.1034528486463926
P00018,1,2023-10-31,303,TUMOR001,2.167061173645769,9.60197778484488
P00018,2,2023-10-13,285,TUMOR001,1.7959993594682748,7.988985822039861
P00018,3,2023-08-08,219,TUMOR001,8.93037530699101,5.344545149834554
P00018,4,2023-06-23,173,TUMOR001,7.661706561811424,0.9772536964244463
P00018,5,2023-02-27,57,TUMOR001,3.0859189770264543,4.716279620864575
P00018,1,2023-01-07,6,TUMOR002,5.017287493783677,9.327002916960293
P00018,2,2023-03-04,62,TUMOR002,1.7577011805367277,4.88938797550008
P00018,3,2023-10-26,298,TUMOR002,2.1151523552392355,8.290071470943108
P00018,4,2023-04-13,102,TUMOR002,5.51985201486686,2.161109061741959
P00018,5,2023-05-31,150,TUMOR002,7.628149406747147,1.1599390132592409
P00019,1,2023-08-28,239,TUMOR001,6.291567252905079,4.6675909143024645
P00019,2,2023-07-20,200,TUMOR001,7.605907845843702,2.5356860257049783
P00019,3,2023-07-24,204,TUMOR001,9.368317911575842,3.1391847230360135
P00019,4,2023-04-26,115,TUMOR001,8.255279389838236,3.047132868419775
P00019,5,2023-01-09,8,TUMOR001,8.849266608511535,6.477158840272731
P00019,1,2023-01-13,12,TUMOR002,3.6056249692814495,3.359697641493664
P00019,2,2023-10-08,280,TUMOR002,0.7309367001367681,8.882115227616042
P00019,3,2023-10-17,289,TUMOR002,0.879805031618338,6.645282964570152
P00019,4,2023-06-27,177,TUMOR002,8.08417171843952,4.425187149339079
P00019,5,2023-08-30,241,TUMOR002,2.6204207132590485,9.333551041949752
P00019,1,2023-02-19,49,TUMOR003,4.856088735274287,9.275379346030823
P00019,2,2023-06-16,166,TUMOR003,4.927976248368977,1.5994167435838507
P00019,3,2023-12-06,339,TUMOR003,3.524020285777894,8.149616729425077
P00019,4,2023-12-05,338,TUMOR003,5.197109133254502,7.0496632922303
P00019,5,2023-01-13,12,TUMOR003,5.664937516292122,8.001871523558918
P00019,1,2023-01-09,8,TUMOR004,1.359508525585359,6.272863840969994
P00019,2,2023-06-12,162,TUMOR004,6.333717259704723,2.148415467430434
P00019,3,2023-06-11,161,TUMOR004,9.124531393714713,5.733778585889558
P00019,4,2023-03-06,64,TUMOR004,6.676398877974754,4.102054229399107
P00019,5,2023-11-25,328,TUMOR004,4.609642943527355,7.5236977485204575
P00020,1,2023-11-03,306,TUMOR001,0.5101649098092939,6.041110164079221
P00020,2,2023-01-12,11,TUMOR001,2.877415284937613,7.781960754925874
P00020,3,2023-07-01,181,TUMOR001,8.056391673309554,7.056063253537459
P00020,4,2023-08-05,216,TUMOR001,1.3906237739663432,2.3978570400678563
P00020,5,2023-09-14,256,TUMOR001,7.457597027056123,6.776162461651357
P00020,1,2023-02-02,32,TUMOR002,1.7164374976938284,6.163223689813472
P00020,2,2023-06-08,158,TUMOR002,7.554211625527137,8.301824563061043
P00020,3,2023-09-05,247,TUMOR002,5.863067708370366,8.753156498904662
P00020,4,2023-01-14,13,TUMOR002,5.539957687050134,3.400070045609982
P00020,5,2023-10-21,293,TUMOR002,2.8325334994899247,9.14419072871583
P00020,1,2023-03-10,68,TUMOR003,5.19451444509103,7.197480697518247
P00020,2,2023-01-12,11,TUMOR003,8.073541669838693,7.298579284765772
P00020,3,2023-05-19,138,TUMOR003,0.9814855908769993,7.290469871875287
P00020,4,2023-12-19,352,TUMOR003,7.210137909936659,1.0811849445264015
P00020,5,2023-01-05,4,TUMOR003,1.8261378620554773,4.1088847261905475
P00021,1,2023-02-28,58,TUMOR001,2.358655507483191,4.710171185274916
P00021,2,2023-11-16,319,TUMOR001,2.3043780460434036,5.629962753056719
P00021,3,2023-04-17,106,TUMOR001,6.38582880613587,6.285780471846112
P00021,4,2023-08-01,212,TUMOR001,3.1683987669512903,7.557621978531027
P00021,5,2023-11-21,324,TUMOR001,8.696809530176068,7.51675988029077
P00021,1,2023-08-07,218,TUMOR002,3.9890046528172847,2.5764890511576395
P00021,2,2023-04-18,107,TUMOR002,7.027558545005758,5.392655348949951
P00021,3,2023-06-20,170,TUMOR002,0.8310194618925184,5.261424926500627
P00021,4,2023-07-21,201,TUMOR002,4.637194902059358,8.733972309368033
P00021,5,2023-06-08,158,TUMOR002,7.261253979889575,4.405151885909341
P00021,1,2023-06-18,168,TUMOR003,4.257968560844974,7.912002088800863
P00021,2,2023-02-26,56,TUMOR003,7.242097197170723,6.072016173663714
P00021,3,2023-02-22,52,TUMOR003,8.106362439565842,9.555956830311633
P00021,4,2023-08-27,238,TUMOR003,0.8863776266280095,8.948894050500627
P00021,5,2023-02-18,48,TUMOR003,8.963156085254496,6.892556406356295
P00022,1,2023-05-26,145,TUMOR001,9.052309126990187,6.31079229683537
P00022,2,2023-10-17,289,TUMOR001,9.786818882865465,3.1820317742668793
P00022,3,2023-04-12,101,TUMOR001,7.820139146857522,3.499612127898647
P00022,4,2023-12-16,349,TUMOR001,1.0069091490315318,2.5083797111628736
P00022,5,2023-07-12,192,TUMOR001,5.292267248895343,5.960016920933752
P00022,1,2023-11-20,323,TUMOR002,1.2396715785065315,4.086217239846155
P00022,2,2023-02-21,51,TUMOR002,1.335436645471858,0.996791059247057
P00022,3,2023-09-27,269,TUMOR002,1.7171733706485424,1.662409055670588
P00022,4,2023-01-11,10,TUMOR002,7.795179352110961,6.783279833419644
P00022,5,2023-04-05,94,TUMOR002,2.75205431710985,4.2362504979867825
P00022,1,2023-04-22,111,TUMOR003,5.104406399306751,8.269398597572774
P00022,2,2023-04-26,115,TUMOR003,3.758332229134675,5.936601021616595
P00022,3,2023-11-17,320,TUMOR003,7.845863045636009,8.190656511223107
P00022,4,2023-07-03,183,TUMOR003,6.618904686372132,7.4726387803390955
P00022,5,2023-06-13,163,TUMOR003,8.996770842576758,6.623263508362422
P00023,1,2023-06-28,178,TUMOR001,3.274223662031707,7.250087456250431
P00023,2,2023-06-02,152,TUMOR001,2.0397129313376556,8.520800454360208
P00023,3,2023-09-20,262,TUMOR001,4.095511160982576,1.9911288196621784
P00023,4,2023-09-03,245,TUMOR001,6.252352586028297,6.502979786908244
P00023,5,2023-02-28,58,TUMOR001,1.1745712981450278,0.6903218680343695
P00023,1,2023-03-20,78,TUMOR002,1.9466502972726447,1.1428488699436565
P00023,2,2023-12-04,337,TUMOR002,3.3910716684839124,9.845563128034604
P00023,3,2023-01-06,5,TUMOR002,7.875056208528682,9.348169830288745
P00023,4,2023-05-30,149,TUMOR002,2.1553505922495955,8.476925314780441
P00023,5,2023-07-07,187,TUMOR002,8.087927132183705,6.436333599704632
P00024,1,2023-05-07,126,TUMOR001,3.8597456980340006,5.1719479717098364
P00024,2,2023-07-03,183,TUMOR001,6.078888268802305,8.218381866369521
P00024,3,2023-02-11,41,TUMOR001,1.020162557108845,5.749065177697634
P00024,4,2023-10-31,303,TUMOR001,6.751748816694213,4.917791984178176
P00024,5,2023-12-21,354,TUMOR001,9.737189366292759,9.645738369009859
P00024,1,2023-05-31,150,TUMOR002,6.4337629957860925,8.872706485018073
P00024,2,2023-05-09,128,TUMOR002,5.243716325353241,1.7399040588497479
P00024,3,2023-03-07,65,TUMOR002,2.7887780895235106,1.134702908945074
P00024,4,2023-07-22,202,TUMOR002,2.32174790379541,7.948210392482007
P00024,5,2023-02-23,53,TUMOR002,5.7419186496577685,3.3115600574784403
P00024,1,2023-10-19,291,TUMOR003,6.926899520112818,1.3154590690257286
P00024,2,2023-08-18,229,TUMOR003,5.631473964380891,3.373526398270216
P00024,3,2023-03-26,84,TUMOR003,0.5829360705681788,5.133392267344806
P00024,4,2023-12-30,363,TUMOR003,4.272314021999286,4.567150035321516
P00024,5,2023-12-08,341,TUMOR003,0.943819641889101,1.1105557313002483
P00024,1,2023-03-01,59,TUMOR004,7.4769426644382255,1.2688458424246685
P00024,2,2023-03-03,61,TUMOR004,6.439538550976859,9.45337140061815
P00024,3,2023-01-30,29,TUMOR004,7.574434748210861,6.292427514198853
P00024,4,2023-07-29,209,TUMOR004,3.6625535017188566,9.432664604362403
P00024,5,2023-01-02,1,TUMOR004,6.018150333446481,1.3398804760403882
P00025,1,2023-12-11,344,TUMOR001,2.0209458243252745,6.054187976887991
P00025,2,2023-02-17,47,TUMOR001,7.639842217316896,9.12114574842744
P00025,3,2023-07-30,210,TUMOR001,9.758291201280885,5.388888228762346
P00025,4,2023-12-11,344,TUMOR001,7.050616318264172,3.3366301316964364
P00025,5,2023-06-04,154,TUMOR001,6.282988998753134,5.7056857742389315
P00025,1,2023-01-03,2,TUMOR002,0.7818531353435489,6.031219074913592
P00025,2,2023-01-02,1,TUMOR002,2.3264623190993525,8.842880618320525
P00025,3,2023-08-07,218,TUMOR002,7.5946900714279995,7.438722619393585
P00025,4,2023-08-14,225,TUMOR002,3.6913610425385492,5.220762444906239
P00025,5,2023-12-20,353,TUMOR002,7.398024945764836,4.3524403343792635
P00025,1,2023-04-19,108,TUMOR003,8.067927105109177,9.78016042786103
P00025,2,2023-08-22,233,TUMOR003,6.34148024010387,8.11535030138917
P00025,3,2023-11-14,317,TUMOR003,8.230623924957783,7.31881322886127
P00025,4,2023-01-26,25,TUMOR003,8.339850355077184,7.852226774871779
P00025,5,2023-05-02,121,TUMOR003,2.765376740093252,8.401165172848748
P00025,1,2023-05-13,132,TUMOR004,7.472739123092945,4.623943133382442
P00025,2,2023-05-15,134,TUMOR004,1.863033916526545,1.893645899474846
P00025,3,2023-06-05,155,TUMOR004,2.531874574386846,1.3597445520294646
P00025,4,2023-02-04,34,TUMOR004,3.6927089427574473,3.9429263267676333
P00025,5,2023-12-27,360,TUMOR004,2.453687629607888,2.3883378933895596
P00026,1,2023-04-26,115,TUMOR001,9.603105775627276,3.5707229793804833
P00026,2,2023-03-12,70,TUMOR001,8.610946793000645,6.4860117723163455
P00026,3,2023-02-20,50,TUMOR001,8.668906020081625,4.68436044949503
P00026,4,2023-06-20,170,TUMOR001,7.396283373728681,5.8111029478326905
P00026,5,2023-03-21,79,TUMOR001,5.793588931483127,7.275923152028896
P00026,1,2023-08-18,229,TUMOR002,8.628410288082915,4.614868779539759
P00026,2,2023-02-13,43,TUMOR002,1.96417344516198,4.557099712983157
P00026,3,2023-09-20,262,TUMOR002,3.918914350928707,5.948519003685926
P00026,4,2023-08-15,226,TUMOR002,8.518499302934588,7.625206393311219
P00026,5,2023-01-23,22,TUMOR002,1.483233721099279,2.149921251018056
P00026,1,2023-07-06,186,TUMOR003,0.5226413737976494,4.598111726128897
P00026,2,2023-12-11,344,TUMOR003,1.5494394424344544,7.85041392053585
P00026,3,2023-06-15,165,TUMOR003,1.8488160351404512,4.235975463553502
P00026,4,2023-09-13,255,TUMOR003,5.448314347541993,7.802457526134164
P00026,5,2023-05-27,146,TUMOR003,8.50882219754861,9.926814380550502
P00026,1,2023-09-02,244,TUMOR004,9.31100274637775,1.9073752669117499
P00026,2,2023-11-02,305,TUMOR004,3.033606207857446,9.385325326414375
P00026,3,2023-03-19,77,TUMOR004,8.37940162033682,7.295949568360924
P00026,4,2023-12-27,360,TUMOR004,1.3652064879917838,6.647240918411776
P00026,5,2023-09-21,263,TUMOR004,2.316557139475695,2.148999555583536
P00026,1,2023-08-13,224,TUMOR005,4.529198343179991,5.456620511211846
P00026,2,2023-01-18,17,TUMOR005,5.947964958887457,4.689808097998925
P00026,3,2023-04-28,117,TUMOR005,7.71205154285844,1.4385752374579752
P00026,4,2023-01-16,15,TUMOR005,4.353391986156032,8.463645844061654
P00026,5,2023-05-02,121,TUMOR005,3.1057309942529137,2.453068633575905
P00027,1,2023-01-07,6,TUMOR001,2.876569898556017,8.420558535572951
P00027,2,2023-04-15,104,TUMOR001,6.064801314621845,3.857671834714907
P00027,3,2023-01-11,10,TUMOR001,9.291796685618154,2.158590315000358
P00027,4,2023-07-27,207,TUMOR001,2.1104094625878225,6.49891969592462
P00027,5,2023-07-25,205,TUMOR001,5.595134914133819,3.735733546614317
P00027,1,2023-03-30,88,TUMOR002,7.868529216759379,4.884609051955447
P00027,2,2023-01-06,5,TUMOR002,3.5298681166764583,9.062991970168293
P00027,3,2023-05-19,138,TUMOR002,5.38053073666988,8.391392378241727
P00027,4,2023-12-19,352,TUMOR002,4.056001304689213,5.373464816840237
P00027,5,2023-03-28,86,TUMOR002,6.559026885095104,1.8330210698201737
P00027,1,2023-10-13,285,TUMOR003,3.505273228914823,3.635631414459751
P00027,2,2023-02-23,53,TUMOR003,9.680947724855338,2.0964030790254946
P00027,3,2023-07-07,187,TUMOR003,3.490840016079822,6.893525690294383
P00027,4,2023-03-10,68,TUMOR003,6.343974969669561,7.770627042032913
P00027,5,2023-05-25,144,TUMOR003,7.7652336345569735,2.6911737097259305
P00027,1,2023-11-02,305,TUMOR004,1.69944009222243,6.629057913657658
P00027,2,2023-07-11,191,TUMOR004,9.52658594477291,5.43220161903493
P00027,3,2023-06-05,155,TUMOR004,2.1990320518761926,5.69427057516728
P00027,4,2023-06-23,173,TUMOR004,5.060425773741467,9.097799080398971
P00027,5,2023-03-03,61,TUMOR004,3.117833400480446,9.162093709977432
P00028,1,2023-09-16,258,TUMOR001,9.391336491335133,5.1987898238709125
P00028,2,2023-01-28,27,TUMOR001,9.95382509581918,8.160124685172
P00028,3,2023-08-06,217,TUMOR001,4.480529056200046,4.822358938495082
P00028,4,2023-09-10,252,TUMOR001,5.7964591576029525,1.1381985614542476
P00028,5,2023-03-21,79,TUMOR001,6.282540940329408,6.580878792996599
P00028,1,2023-02-21,51,TUMOR002,3.078481000601846,6.212323217847781
P00028,2,2023-05-12,131,TUMOR002,5.115315596659084,5.857379268007939
P00028,3,2023-03-16,74,TUMOR002,0.6630206546788804,9.225284196801839
P00028,4,2023-11-15,318,TUMOR002,3.058416648592138,7.075930086582478
P00028,5,2023-04-03,92,TUMOR002,7.7711536110771195,1.9384988938174863
P00029,1,2023-12-20,353,TUMOR001,7.41869860163789,3.6301877645384613
P00029,2,2023-05-10,129,TUMOR001,9.190918239235556,7.111274852573119
P00029,3,2023-08-20,231,TUMOR001,0.84132438746806,7.717001675119509
P00029,4,2023-01-05,4,TUMOR001,0.9789509392208039,2.5387179241049838
P00029,5,2023-08-13,224,TUMOR001,0.7052305603317464,7.642419026578833
P00029,1,2023-05-02,121,TUMOR002,3.831467441267771,9.671936505058044
P00029,2,2023-11-07,310,TUMOR002,8.790387987886882,5.304964780754799
P00029,3,2023-06-24,174,TUMOR002,1.7687465896133177,3.711087326343783
P00029,4,2023-01-30,29,TUMOR002,4.987694155905427,7.394639458552909
P00029,5,2023-05-07,126,TUMOR002,5.943339311152721,2.7869605331327176
P00029,1,2023-01-06,5,TUMOR003,5.2046543361775335,5.4995970402903795
P00029,2,2023-02-08,38,TUMOR003,8.044402886169678,2.9841122393267234
P00029,3,2023-03-20,78,TUMOR003,4.38389819430336,9.462326646825378
P00029,4,2023-11-29,332,TUMOR003,7.560089280304905,8.352670596288082
P00029,5,2023-10-20,292,TUMOR003,2.806995023593825,0.9656954820610155
P00029,1,2023-06-11,161,TUMOR004,2.046157470057754,7.586597755702242
P00029,2,2023-01-14,13,TUMOR004,7.998798407630928,1.8143884673593356
P00029,3,2023-03-18,76,TUMOR004,4.97041568041997,1.1797951221329752
P00029,4,2023-03-25,83,TUMOR004,8.22525724575938,4.235135378147085
P00029,5,2023-03-27,85,TUMOR004,2.979278663027212,4.523985334598142
P00030,1,2023-06-30,180,TUMOR001,7.407885276070754,7.943577385091725
P00030,2,2023-07-04,184,TUMOR001,1.0803154823320054,4.523642350768648
P00030,3,2023-07-12,192,TUMOR001,3.478158106455373,4.450950177508194
P00030,4,2023-02-25,55,TUMOR001,4.242722240597768,7.935851726707728
P00030,5,2023-12-13,346,TUMOR001,9.905962311445304,5.868774091807951
P00030,1,2023-02-28,58,TUMOR002,6.161381635101726,9.390846240075529
P00030,2,2023-06-20,170,TUMOR002,2.450419595757194,4.367019252802574
P00030,3,2023-10-23,295,TUMOR002,9.615199887745463,8.03419953783091
P00030,4,2023-04-30,119,TUMOR002,8.500601242161846,4.6949715613785425
P00030,5,2023-09-09,251,TUMOR002,5.1886973237493965,2.8990351039588784
P00031,1,2023-06-20,170,TUMOR001,0.5727508495109577,8.809548092368406
P00031,2,2023-03-19,77,TUMOR001,1.5594713107129676,2.058124319836664
P00031,3,2023-05-20,139,TUMOR001,8.53781473639579,1.4489366404658945
P00031,4,2023-01-18,17,TUMOR001,9.664218217517655,9.466993297562446
P00031,5,2023-11-13,316,TUMOR001,3.632952384626183,2.255955712721394
P00031,1,2023-12-06,339,TUMOR002,6.540440626377418,6.420551509387626
P00031,2,2023-01-31,30,TUMOR002,6.084974507271811,1.6930440216059326
P00031,3,2023-11-28,331,TUMOR002,6.809458896411751,4.956736763420748
P00031,4,2023-02-28,58,TUMOR002,2.84332595702086,1.2803348099846195
P00031,5,2023-07-03,183,TUMOR002,3.392882946322491,6.112209817638749
P00031,1,2023-10-15,287,TUMOR003,3.1010767829229455,0.5861773813326041
P00031,2,2023-06-15,165,TUMOR003,3.4715647655334676,6.177213832225658
P00031,3,2023-07-10,190,TUMOR003,0.7568599596019359,0.7082637327152812
P00031,4,2023-05-22,141,TUMOR003,1.9454353257981822,4.49911376099201
P00031,5,2023-08-08,219,TUMOR003,1.9004291358736145,6.949088982707591
P00031,1,2023-08-07,218,TUMOR004,7.381887677966034,8.530152652691138
P00031,2,2023-05-06,125,TUMOR004,1.4443197545964448,8.130533850499482
P00031,3,2023-03-26,84,TUMOR004,8.706379465161058,3.5741191086251414
P00031,4,2023-02-04,34,TUMOR004,9.295817748327226,1.0549217438674166
P00031,5,2023-08-10,221,TUMOR004,0.5853341359695288,4.700906253186684
P00031,1,2023-06-24,174,TUMOR005,4.052584210816523,0.7152395864779602
P00031,2,2023-05-12,131,TUMOR005,6.537950914816746,6.852134906230543
P00031,3,2023-02-07,37,TUMOR005,3.7821176212665217,9.645064664695145
P00031,4,2023-09-04,246,TUMOR005,7.905944781051469,3.128733693072431
P00031,5,2023-03-16,74,TUMOR005,7.519041528439132,6.39175678902466
P00032,1,2023-03-31,89,TUMOR001,4.181980802516492,2.1543228834283563
P00032,2,2023-01-12,11,TUMOR001,4.1590922408003514,6.902773383152338
P00032,3,2023-07-01,181,TUMOR001,1.6449533259752172,4.343882068394455
P00032,4,2023-09-30,272,TUMOR001,6.387936202649131,9.99705629175369
P00032,5,2023-08-14,225,TUMOR001,8.237571167777865,2.352759323006641
P00032,1,2023-02-08,38,TUMOR002,2.4821060663770576,3.557128999645009
P00032,2,2023-03-15,73,TUMOR002,0.589858704342559,4.8507128426490596
P00032,3,2023-07-11,191,TUMOR002,4.1846120367816955,3.4998567688425455
P00032,4,2023-05-16,135,TUMOR002,5.203223567241954,9.697084067115572
P00032,5,2023-10-11,283,TUMOR002,6.54470870340559,6.123931200850376
P00033,1,2023-05-19,138,TUMOR001,3.5696451836519727,1.1898697729083971
P00033,2,2023-08-08,219,TUMOR001,4.072009923909777,9.305597714175391
P00033,3,2023-09-05,247,TUMOR001,8.642332381693375,6.698514027300446
P00033,4,2023-04-29,118,TUMOR001,6.692575341393194,8.07932999701465
P00033,5,2023-03-16,74,TUMOR001,4.526966033918773,0.9690959093460301
P00033,1,2023-06-14,164,TUMOR002,5.381580990675249,2.673394358633413
P00033,2,2023-11-11,314,TUMOR002,3.53761648737076,6.049680147711021
P00033,3,2023-05-06,125,TUMOR002,3.005684601435377,3.1211650454976123
P00033,4,2023-05-20,139,TUMOR002,6.027584081471508,0.727412491415947
P00033,5,2023-01-14,13,TUMOR002,2.6902746007524296,0.9601967259224551
P00034,1,2023-09-12,254,TUMOR001,7.1999664920875235,6.9867829530669345
P00034,2,2023-05-01,120,TUMOR001,3.644358531263453,3.855844325954186
P00034,3,2023-10-09,281,TUMOR001,6.137832783525598,9.647955533442902
P00034,4,2023-07-22,202,TUMOR001,9.66097775166095,7.753752863016187
P00034,5,2023-03-15,73,TUMOR001,7.764883135586797,5.6630897654979675
P00035,1,2023-01-05,4,TUMOR001,8.71482596740918,8.6493495460498
P00035,2,2023-08-01,212,TUMOR001,4.686473493468417,1.1704565017244681
P00035,3,2023-03-31,89,TUMOR001,5.318372599900698,1.130237319158471
P00035,4,2023-11-30,333,TUMOR001,9.55765855515644,7.151163880417783
P00035,5,2023-10-24,296,TUMOR001,8.336829619738932,2.71529491117244
P00035,1,2023-04-26,115,TUMOR002,4.086138783874961,1.6384457988876815
P00035,2,2023-03-18,76,TUMOR002,8.40274380519927,6.695974785678413
P00035,3,2023-04-15,104,TUMOR002,7.5820411100754095,6.223222082521245
P00035,4,2023-11-26,329,TUMOR002,5.145160722183372,5.438297364522246
P00035,5,2023-05-13,132,TUMOR002,2.647832792398796,6.668689288161133
P00036,1,2023-11-27,330,TUMOR001,5.4435344242496715,5.622930800462708
P00036,2,2023-01-10,9,TUMOR001,7.882545390054725,2.159953717784596
P00036,3,2023-07-17,197,TUMOR001,5.445757317526316,0.9250328838189825
P00036,4,2023-12-19,352,TUMOR001,7.195620148958381,4.856809548140573
P00036,5,2023-11-11,314,TUMOR001,5.8702469146758816,1.7222018721619758
P00036,1,2023-06-02,152,TUMOR002,0.7911495473047713,4.175920397763598
P00036,2,2023-12-29,362,TUMOR002,1.1676363929820215,6.872029799930652
P00036,3,2023-07-03,183,TUMOR002,1.1464109830331564,2.610740643518404
P00036,4,2023-07-06,186,TUMOR002,8.446878345785446,6.235808025228816
P00036,5,2023-05-11,130,TUMOR002,0.561802048349977,7.3429628269449765
P00036,1,2023-10-15,287,TUMOR003,1.4033706254972742,7.52349495501679
P00036,2,2023-12-20,353,TUMOR003,1.1353992876299468,9.361989093395165
P00036,3,2023-04-02,91,TUMOR003,9.221855404467833,1.6571077197783353
P00036,4,2023-02-16,46,TUMOR003,4.634212827656502,2.5687095154613035
P00036,5,2023-04-19,108,TUMOR003,8.69145529850453,0.8942418940401189
P00036,1,2023-08-09,220,TUMOR004,0.9153368045697399,1.858453581738348
P00036,2,2023-11-01,304,TUMOR004,9.822435242495782,4.937712597703084
P00036,3,2023-07-19,199,TUMOR004,3.3296239443920155,3.6445728596801703
P00036,4,2023-11-03,306,TUMOR004,3.3413766535223983,9.199707636539674
P00036,5,2023-04-08,97,TUMOR004,5.272172783009501,2.0315777132934265
P00036,1,2023-02-06,36,TUMOR005,4.135435208954226,6.875035455705762
P00036,2,2023-07-22,202,TUMOR005,1.9459838521158597,6.277669592592935
P00036,3,2023-10-31,303,TUMOR005,8.957823811850817,5.377238870963651
P00036,4,2023-03-31,89,TUMOR005,4.444970647660458,4.638553738592633
P00036,5,2023-11-13,316,TUMOR005,2.9045377554839336,7.971706542216887
P00037,1,2023-11-06,309,TUMOR001,3.987249642351065,4.821243187795986
P00037,2,2023-06-10,160,TUMOR001,3.119236157227306,4.004461970303425
P00037,3,2023-08-01,212,TUMOR001,7.751022106955024,9.180077140007677
P00037,4,2023-03-01,59,TUMOR001,4.533012981184484,6.675467636236457
P00037,5,2023-06-16,166,TUMOR001,0.5450498333879109,1.2383802501581225
P00037,1,2023-11-05,308,TUMOR002,0.5486279116685422,5.936305317689992
P00037,2,2023-01-17,16,TUMOR002,5.005348264481287,1.5820067127074828
P00037,3,2023-09-04,246,TUMOR002,2.775286543911385,9.295821055348359
P00037,4,2023-08-07,218,TUMOR002,0.7604646558805435,4.322962832375662
P00037,5,2023-07-26,206,TUMOR002,7.327913577131137,6.6316320368536195
P00037,1,2023-07-29,209,TUMOR003,0.8196591909988585,5.7038011409357745
P00037,2,2023-04-24,113,TUMOR003,9.029776012536718,8.300262599326583
P00037,3,2023-10-06,278,TUMOR003,8.117345074140001,0.621731827760011
P00037,4,2023-10-30,302,TUMOR003,7.9465675986713675,6.719630795567534
P00037,5,2023-12-02,335,TUMOR003,2.301556095665422,2.7023152550276324
P00038,1,2023-12-24,357,TUMOR001,7.612560924161995,9.985850945691631
P00038,2,2023-07-17,197,TUMOR001,1.7433013288769679,5.679441624175596
P00038,3,2023-06-04,154,TUMOR001,9.338882526862726,5.746986383748397
P00038,4,2023-05-18,137,TUMOR001,4.959708731393277,6.448708971737941
P00038,5,2023-08-17,228,TUMOR001,7.7942121344008495,5.420085650525339
P00038,1,2023-11-28,331,TUMOR002,0.8922713159589053,2.977860935358514
P00038,2,2023-02-27,57,TUMOR002,5.8574746155569635,5.174797277357277
P00038,3,2023-06-05,155,TUMOR002,7.8370674665803755,9.170697040135254
P00038,4,2023-05-19,138,TUMOR002,4.227151316252753,9.722586378612307
P00038,5,2023-09-16,258,TUMOR002,5.398778322784798,1.6855736437978492
P00039,1,2023-02-09,39,TUMOR001,5.757421344312458,7.601886706388238
P00039,2,2023-08-11,222,TUMOR001,9.365683860446032,3.105180583715252
P00039,3,2023-02-15,45,TUMOR001,5.643896454503598,7.134849342750193
P00039,4,2023-08-17,228,TUMOR001,3.900721700362636,7.174559301568009
P00039,5,2023-10-19,291,TUMOR001,5.407435890742657,3.4380793276356094
P00039,1,2023-05-13,132,TUMOR002,5.327636409322768,1.878362726865392
P00039,2,2023-02-03,33,TUMOR002,9.063208436899487,6.098669051883981
P00039,3,2023-02-02,32,TUMOR002,5.535116600845724,6.047313656958278
P00039,4,2023-10-28,300,TUMOR002,2.7532109591111875,4.9037329693866605
P00039,5,2023-06-28,178,TUMOR002,8.108651986765292,5.105467664270073
P00040,1,2023-04-01,90,TUMOR001,2.6100644168165443,5.849627525989808
P00040,2,2023-02-23,53,TUMOR001,8.837230634816818,0.7494917089875028
P00040,3,2023-04-20,109,TUMOR001,2.880288073298497,6.9007530943372695
P00040,4,2023-10-17,289,TUMOR001,9.904139977323073,8.099265240037202
P00040,5,2023-12-06,339,TUMOR001,4.245836228997792,4.842718726700468
P00041,1,2023-01-04,3,TUMOR001,5.063761422371991,5.753452330081253
P00041,2,2023-05-28,147,TUMOR001,1.1705357020514,8.33079892340687
P00041,3,2023-02-16,46,TUMOR001,2.029155827817882,3.6991903365262253
P00041,4,2023-10-23,295,TUMOR001,7.334615177861022,8.885898868051978
P00041,5,2023-08-28,239,TUMOR001,7.4653790047192725,5.992820243957398
P00041,1,2023-04-22,111,TUMOR002,5.86128611555255,3.5262508454665697
P00041,2,2023-04-24,113,TUMOR002,7.973565503909436,8.635903005760927
P00041,3,2023-02-04,34,TUMOR002,6.443424168361212,5.9273625127329295
P00041,4,2023-11-27,330,TUMOR002,2.512010667601363,3.9546636409060096
P00041,5,2023-09-03,245,TUMOR002,1.2957234284365304,7.616713865073301
P00041,1,2023-02-03,33,TUMOR003,4.609223850822059,5.953749819528717
P00041,2,2023-03-10,68,TUMOR003,9.824704003630568,5.513575670864438
P00041,3,2023-01-31,30,TUMOR003,5.69169429053669,6.88661338036955
P00041,4,2023-05-21,140,TUMOR003,1.9898357985601995,6.490280118553498
P00041,5,2023-11-17,320,TUMOR003,1.527990713004534,8.375986916510483
P00041,1,2023-12-02,335,TUMOR004,3.8665102271607714,5.709902020253485
P00041,2,2023-06-03,153,TUMOR004,3.3580433529615017,5.358579465644263
P00041,3,2023-04-16,105,TUMOR004,4.46130347647853,2.629354565799615
P00041,4,2023-12-23,356,TUMOR004,6.656855458282419,7.383620711898195
P00041,5,2023-08-28,239,TUMOR004,4.149369554798534,9.6503749368164
P00041,1,2023-03-20,78,TUMOR005,3.271187287490614,3.3267188193472332
P00041,2,2023-11-05,308,TUMOR005,4.942519263167109,3.6856324939902185
P00041,3,2023-09-05,247,TUMOR005,9.594239086781045,6.457022928889542
P00041,4,2023-10-06,278,TUMOR005,2.5757040535394107,5.022165735097004
P00041,5,2023-04-09,98,TUMOR005,6.232895561849101,4.6190869075629175
P00042,1,2023-12-29,362,TUMOR001,4.947221431718817,1.3053831725005454
P00042,2,2023-12-21,354,TUMOR001,4.58629972294149,8.361348417515686
P00042,3,2023-05-08,127,TUMOR001,5.900744687070711,2.132637619262123
P00042,4,2023-03-22,80,TUMOR001,0.5169502703973092,3.6105329726718454
P00042,5,2023-08-11,222,TUMOR001,8.936321871932849,9.567877888061542
P00042,1,2023-09-03,245,TUMOR002,6.4944710509692785,2.4354545282213182
P00042,2,2023-03-29,87,TUMOR002,9.07228145370765,6.097336123332483
P00042,3,2023-09-01,243,TUMOR002,5.724871096240232,7.479130302638766
P00042,4,2023-03-01,59,TUMOR002,0.7289291376128633,7.6342506047886
P00042,5,2023-03-24,82,TUMOR002,1.2484855206207028,6.508065261889785
P00042,1,2023-02-14,44,TUMOR003,9.267496927904823,1.545482436989483
P00042,2,2023-10-25,297,TUMOR003,4.5671873341530125,4.9188328628164575
P00042,3,2023-09-10,252,TUMOR003,5.407897275703996,9.09869421147696
P00042,4,2023-02-27,57,TUMOR003,2.1877471088083635,3.73871404656275
P00042,5,2023-05-01,120,TUMOR003,9.140184660507419,2.4532253328565394
P00042,1,2023-02-04,34,TUMOR004,3.0999726006607715,3.76808320273961
P00042,2,2023-11-21,324,TUMOR004,2.8593385654700767,8.164389566616723
P00042,3,2023-07-15,195,TUMOR004,2.1871269426501914,5.317990156599914
P00042,4,2023-02-20,50,TUMOR004,5.441758463138386,2.5374218791602083
P00042,5,2023-05-10,129,TUMOR004,6.577912190798875,7.163710329507312
P00042,1,2023-04-24,113,TUMOR005,3.3859724953178434,3.3620901238638834
P00042,2,2023-04-30,119,TUMOR005,5.274938070791083,3.612030341922586
P00042,3,2023-01-01,0,TUMOR005,8.850722428745119,3.905998841692465
P00042,4,2023-06-11,161,TUMOR005,7.070086643466537,1.928575343365516
P00042,5,2023-04-24,113,TUMOR005,3.863719971831031,0.5548033334504142
P00043,1,2023-04-15,104,TUMOR001,3.4820349883651787,4.521031168677258
P00043,2,2023-07-30,210,TUMOR001,1.288173792087941,2.9719429289861212
P00043,3,2023-08-07,218,TUMOR001,5.423632821199454,4.976749551294
P00043,4,2023-03-18,76,TUMOR001,7.549923033198738,8.092008324833042
P00043,5,2023-08-28,239,TUMOR001,0.8199379273694078,1.6733605025350846
P00043,1,2023-09-11,253,TUMOR002,0.5620009449971026,8.752642562048326
P00043,2,2023-11-28,331,TUMOR002,6.105886652744568,6.91215240220677
P00043,3,2023-05-17,136,TUMOR002,5.739748293857403,2.018954597404086
P00043,4,2023-12-11,344,TUMOR002,6.947234209760456,2.404051899306748
P00043,5,2023-07-29,209,TUMOR002,4.500094193099909,6.483295872395184
P00044,1,2023-08-05,216,TUMOR001,0.5139914361130602,1.5982995714557422
P00044,2,2023-10-05,277,TUMOR001,5.580522382590297,2.468410556523158
P00044,3,2023-02-28,58,TUMOR001,2.470695990768473,8.577944575490541
P00044,4,2023-01-25,24,TUMOR001,5.860209018070126,1.0341096104382699
P00044,5,2023-09-17,259,TUMOR001,3.1761457313181904,3.1322401742910113
P00044,1,2023-07-16,196,TUMOR002,3.684489564572421,8.264499949618376
P00044,2,2023-09-01,243,TUMOR002,9.28120820883981,0.9564241760620297
P00044,3,2023-07-23,203,TUMOR002,5.26947178167937,5.105336721241118
P00044,4,2023-01-01,0,TUMOR002,1.1259730476026906,4.431019665627055
P00044,5,2023-01-28,27,TUMOR002,7.652641437863838,7.510765347290344
P00045,1,2023-07-27,207,TUMOR001,7.256955816724601,6.058851071322246
P00045,2,2023-03-06,64,TUMOR001,7.535417078806029,3.264837376189387
P00045,3,2023-07-07,187,TUMOR001,9.535065865005135,6.713148976373842
P00045,4,2023-11-30,333,TUMOR001,5.9438988339447185,7.876425882763154
P00045,5,2023-06-06,156,TUMOR001,5.215307794314113,6.142064232131307
P00045,1,2023-12-17,350,TUMOR002,3.253342988694601,4.811191103333121
P00045,2,2023-05-10,129,TUMOR002,2.801590170930666,4.800876050323225
P00045,3,2023-05-30,149,TUMOR002,3.8432464198084952,9.127664972469137
P00045,4,2023-08-06,217,TUMOR002,5.289519016484156,3.9452094160482805
P00045,5,2023-09-29,271,TUMOR002,7.650626433331305,7.146313220273079
P00045,1,2023-11-25,328,TUMOR003,6.9848140567509915,9.565969394705858
P00045,2,2023-04-21,110,TUMOR003,9.96447370616833,1.2771015656771856
P00045,3,2023-03-24,82,TUMOR003,8.002054934282121,7.1509392264056215
P00045,4,2023-08-03,214,TUMOR003,8.405430623318152,5.0660357645777845
P00045,5,2023-08-02,213,TUMOR003,5.220191349879324,3.3920949172073165
P00045,1,2023-11-19,322,TUMOR004,8.777309746294163,0.65146468511714
P00045,2,2023-05-29,148,TUMOR004,2.282537842029878,6.363768783102326
P00045,3,2023-05-27,146,TUMOR004,2.9443787252702838,4.444444725852997
P00045,4,2023-11-21,324,TUMOR004,5.59162025945123,4.772551422828341
P00045,5,2023-09-03,245,TUMOR004,1.2181342379926698,4.116299565141749
P00046,1,2023-01-19,18,TUMOR001,6.413855260366102,7.711531720324434
P00046,2,2023-04-13,102,TUMOR001,7.876612450033182,9.000022924683309
P00046,3,2023-11-03,306,TUMOR001,3.4140229628056202,2.2795814202577036
P00046,4,2023-05-30,149,TUMOR001,4.864564255429732,2.538935762494972
P00046,5,2023-12-27,360,TUMOR001,9.380699832775347,5.000097148386761
P00046,1,2023-05-10,129,TUMOR002,6.470034848707729,1.098146804327034
P00046,2,2023-05-18,137,TUMOR002,3.879743087833133,4.617889639628928
P00046,3,2023-12-02,335,TUMOR002,4.258887533331787,0.8620886873960476
P00046,4,2023-04-25,114,TUMOR002,5.304140825101005,3.260888886930673
P00046,5,2023-03-16,74,TUMOR002,0.5019443079672035,8.491210290376316
P00046,1,2023-07-26,206,TUMOR003,4.737689791490182,1.565533379225337
P00046,2,2023-11-02,305,TUMOR003,4.833883281553198,4.019293271511411
P00046,3,2023-07-11,191,TUMOR003,5.395057539320258,8.675022585307719
P00046,4,2023-01-01,0,TUMOR003,2.665327260025392,5.806372079139531
P00046,5,2023-07-11,191,TUMOR003,1.953735156559934,3.8977439030659964
P00046,1,2023-04-15,104,TUMOR004,6.848501492562234,2.0924018495629344
P00046,2,2023-01-03,2,TUMOR004,7.560837506726737,7.988605564109273
P00046,3,2023-08-04,215,TUMOR004,9.358702616206529,3.0633047773057793
P00046,4,2023-12-17,350,TUMOR004,7.45257754588429,9.885561577056608
P00046,5,2023-09-26,268,TUMOR004,1.8019336155824681,9.98830988030231
P00047,1,2023-12-14,347,TUMOR001,6.035901214584671,4.954018277346194
P00047,2,2023-07-30,210,TUMOR001,9.796945574815387,5.390762687094163
P00047,3,2023-03-09,67,TUMOR001,3.281408780501216,4.356438512469586
P00047,4,2023-02-25,55,TUMOR001,4.885369028155152,9.105529864882204
P00047,5,2023-01-28,27,TUMOR001,8.623414715374798,1.0946594962199054
P00047,1,2023-07-24,204,TUMOR002,6.767412146018724,5.112162082273668
P00047,2,2023-04-22,111,TUMOR002,1.6774772320432088,9.771895442680213
P00047,3,2023-12-14,347,TUMOR002,3.0134089343474364,4.328111045675085
P00047,4,2023-10-23,295,TUMOR002,4.3928448665450315,0.5609204734694748
P00047,5,2023-04-18,107,TUMOR002,3.541103537783214,8.663337958524671
P00048,1,2023-09-26,268,TUMOR001,7.799703803406042,9.375362669158399
P00048,2,2023-06-05,155,TUMOR001,9.856712718091284,7.774340344515855
P00048,3,2023-08-29,240,TUMOR001,3.299126519938543,8.329859665241402
P00048,4,2023-11-16,319,TUMOR001,8.490858280398466,1.5493683964281937
P00048,5,2023-09-28,270,TUMOR001,7.360817429281336,7.8211792810489404
P00048,1,2023-05-20,139,TUMOR002,8.679423347890319,2.74286850852668
P00048,2,2023-08-31,242,TUMOR002,9.537254488409225,1.8551209475610544
P00048,3,2023-03-07,65,TUMOR002,5.227783664284122,5.965086091696008
P00048,4,2023-11-03,306,TUMOR002,5.1371655332047315,4.990307818949835
P00048,5,2023-09-15,257,TUMOR002,0.505150556898005,9.823848471125977
P00048,1,2023-09-17,259,TUMOR003,1.8470555799185753,3.426530174190028
P00048,2,2023-04-09,98,TUMOR003,8.099537895302372,4.387238585753052
P00048,3,2023-07-06,186,TUMOR003,9.060624263332201,2.497684979287355
P00048,4,2023-08-06,217,TUMOR003,0.7838984095488786,7.058121258234204
P00048,5,2023-03-09,67,TUMOR003,4.583545226864661,3.8844080782158876
P00049,1,2023-12-09,342,TUMOR001,8.548026430822295,5.284166333405328
P00049,2,2023-11-16,319,TUMOR001,6.86299905023443,1.7372227149621708
P00049,3,2023-07-03,183,TUMOR001,9.666420738789046,7.249835211569865
P00049,4,2023-01-24,23,TUMOR001,1.8796458725894052,7.892783949119354
P00049,5,2023-11-23,326,TUMOR001,6.02774584989092,8.922271580788777
P00049,1,2023-01-15,14,TUMOR002,4.29461613285719,4.955368288007315
P00049,2,2023-08-27,238,TUMOR002,7.958643010130849,5.83739297521516
P00049,3,2023-10-03,275,TUMOR002,7.930324237483983,7.570759237122302
P00049,4,2023-11-08,311,TUMOR002,6.485817933399474,2.092060163211127
P00049,5,2023-04-09,98,TUMOR002,8.250348595121203,6.638746691365296
P00049,1,2023-03-01,59,TUMOR003,3.9930756992278305,2.349177061746566
P00049,2,2023-01-05,4,TUMOR003,5.395802603507196,2.309938233192569
P00049,3,2023-09-13,255,TUMOR003,6.214921618627995,4.524149353444732
P00049,4,2023-10-08,280,TUMOR003,6.130712069409883,8.287347311876163
P00049,5,2023-08-16,227,TUMOR003,5.535034431062154,4.249275591428809
P00049,1,2023-08-06,217,TUMOR004,0.9160806583853803,5.3076921918800455
P00049,2,2023-04-21,110,TUMOR004,1.4030146136141903,8.281510539020527
P00049,3,2023-04-19,108,TUMOR004,4.671072799703586,7.168552766218763
P00049,4,2023-03-11,69,TUMOR004,9.735575619039887,0.5556999318271197
P00049,5,2023-06-28,178,TUMOR004,2.108657215807728,1.5019596821064782
P00049,1,2023-12-29,362,TUMOR005,4.601645764591443,0.964735393067816
P00049,2,2023-10-28,300,TUMOR005,8.495825624576494,7.849891244008488
P00049,3,2023-04-25,114,TUMOR005,7.3598515722654145,2.9479118366600203
P00049,4,2023-06-17,167,TUMOR005,4.201156383850359,1.8290589514909534
P00049,5,2023-11-07,310,TUMOR005,1.700517277991225,4.097603258808409
P00050,1,2023-04-23,112,TUMOR001,7.483746993211349,7.803718514262459
P00050,2,2023-01-02,1,TUMOR001,8.162958190986117,1.6728939165479173
P00050,3,2023-04-10,99,TUMOR001,5.045355850473002,2.1026942488572757
P00050,4,2023-01-28,27,TUMOR001,5.96386953247022,6.305277566379721
P00050,5,2023-08-24,235,TUMOR001,4.386025919886887,2.7945591048035094
P00050,1,2023-04-12,101,TUMOR002,6.709191158623543,3.4370989061456907
P00050,2,2023-12-04,337,TUMOR002,7.329599664133243,6.204212867533695
P00050,3,2023-11-22,325,TUMOR002,4.066833421326285,9.45362408649624
P00050,4,2023-10-20,292,TUMOR002,2.4841963133174687,3.525228760775742
P00050,5,2023-03-19,77,TUMOR002,4.228751564511473,9.451840719286656
P00050,1,2023-04-06,95,TUMOR003,7.607704946642043,3.8144185903208747
P00050,2,2023-09-25,267,TUMOR003,1.1799388726736946,8.828047492352527
P00050,3,2023-04-08,97,TUMOR003,4.384253016141173,6.3936662492188
P00050,4,2023-07-31,211,TUMOR003,9.161761587472162,3.0109600550211524
P00050,5,2023-07-26,206,TUMOR003,8.993743574179074,8.163440967944855
P00051,1,2023-12-07,340,TUMOR001,3.9780908979090417,4.366930733430297
P00051,2,2023-04-15,104,TUMOR001,7.243795806909236,6.9002279567308875
P00051,3,2023-08-25,236,TUMOR001,2.42905569331546,1.0586708833388634
P00051,4,2023-02-01,31,TUMOR001,6.533733301996648,0.5030730393281118
P00051,5,2023-11-11,314,TUMOR001,7.465062801730083,2.2999991266846713
P00051,1,2023-12-26,359,TUMOR002,1.1314412964457057,4.330704179494832
P00051,2,2023-02-03,33,TUMOR002,4.543350817747047,1.8815692610198549
P00051,3,2023-03-06,64,TUMOR002,5.515698443857105,5.432671482872216
P00051,4,2023-12-31,364,TUMOR002,1.4500250640961085,1.24942810874842
P00051,5,2023-05-19,138,TUMOR002,7.487493261412135,1.25861665838845
P00051,1,2023-12-17,350,TUMOR003,7.748775329842959,9.039960167158384
P00051,2,2023-02-16,46,TUMOR003,3.2519717432367274,6.686764163745436
P00051,3,2023-07-03,183,TUMOR003,3.5587433610338306,2.440903242875965
P00051,4,2023-06-15,165,TUMOR003,0.7379302725246474,1.5079139953089484
P00051,5,2023-03-03,61,TUMOR003,1.9179612398935728,4.347866469645302
P00052,1,2023-08-28,239,TUMOR001,4.35378787763182,5.88755302282476
P00052,2,2023-10-16,288,TUMOR001,7.5335014654784525,2.325931992406788
P00052,3,2023-10-16,288,TUMOR001,3.6935807004829933,3.4779205061998493
P00052,4,2023-09-05,247,TUMOR001,3.010525314711798,3.903615567767759
P00052,5,2023-01-29,28,TUMOR001,2.594814434050424,5.25528544472145
P00052,1,2023-08-30,241,TUMOR002,1.5519479424813085,7.032694229750717
P00052,2,2023-04-23,112,TUMOR002,8.7693231723302,9.044086755491286
P00052,3,2023-11-11,314,TUMOR002,7.884482047014185,7.328308409523503
P00052,4,2023-06-26,176,TUMOR002,5.405978797854425,4.188108047900881
P00052,5,2023-07-15,195,TUMOR002,0.8884691830646576,1.4686773206921495
P00053,1,2023-04-11,100,TUMOR001,1.304013548474975,1.7485330092509814
P00053,2,2023-03-06,64,TUMOR001,9.95640652194371,9.11858889819163
P00053,3,2023-12-20,353,TUMOR001,6.8481441330051895,0.9924660750169967
P00053,4,2023-10-09,281,TUMOR001,0.6170573395082801,3.2449936449866623
P00053,5,2023-05-17,136,TUMOR001,9.07505664093179,9.38695307668375
P00053,1,2023-05-22,141,TUMOR002,7.718106102985311,7.42079333123695
P00053,2,2023-11-14,317,TUMOR002,5.600109537560975,2.767298470974479
P00053,3,2023-11-13,316,TUMOR002,7.062947708415766,7.467736336452939
P00053,4,2023-08-15,226,TUMOR002,0.9981269832433974,7.2459739281513995
P00053,5,2023-09-13,255,TUMOR002,4.408577957150113,6.942785932770111
P00053,1,2023-08-06,217,TUMOR003,1.7789978624318596,9.237227408183616
P00053,2,2023-11-05,308,TUMOR003,7.87387069505562,9.317428207216146
P00053,3,2023-05-05,124,TUMOR003,1.3289117586918249,2.7253168929777023
P00053,4,2023-12-27,360,TUMOR003,8.419184186180669,9.881633753010387
P00053,5,2023-02-10,40,TUMOR003,6.75158227799155,1.673953918405817
P00053,1,2023-02-10,40,TUMOR004,1.0862140465440742,7.191638719946061
P00053,2,2023-02-23,53,TUMOR004,5.080464267745303,4.163077853840489
P00053,3,2023-10-11,283,TUMOR004,2.3427515668632997,7.596525569873576
P00053,4,2023-03-13,71,TUMOR004,2.7810149078066497,2.630399670697609
P00053,5,2023-06-07,157,TUMOR004,3.590569554339649,5.126900577223229
P00054,1,2023-03-13,71,TUMOR001,3.2690382204439503,7.149738607092047
P00054,2,2023-10-31,303,TUMOR001,6.42500018375514,1.7073724013019644
P00054,3,2023-10-09,281,TUMOR001,9.325502826251011,3.3155657897888915
P00054,4,2023-04-18,107,TUMOR001,9.666993606794232,3.2001238715975493
P00054,5,2023-05-19,138,TUMOR001,1.77383305506435,8.424608805291886
P00054,1,2023-11-12,315,TUMOR002,8.026020391780039,5.364822558434952
P00054,2,2023-01-23,22,TUMOR002,1.3174648300393264,2.0462284371021013
P00054,3,2023-07-25,205,TUMOR002,1.7719182217449259,3.422967899500607
P00054,4,2023-04-10,99,TUMOR002,6.930816852545797,5.640758186244652
P00054,5,2023-10-27,299,TUMOR002,1.93092192131639,2.158521289752069
P00055,1,2023-01-29,28,TUMOR001,8.655883038447058,1.628161740055089
P00055,2,2023-03-25,83,TUMOR001,9.187509655968684,8.34244535287801
P00055,3,2023-11-02,305,TUMOR001,1.4093092116510437,7.906719725106495
P00055,4,2023-05-30,149,TUMOR001,2.551715388567898,9.923248829632973
P00055,5,2023-12-13,346,TUMOR001,7.217535947586167,2.945607534772584
P00055,1,2023-05-04,123,TUMOR002,7.641205132686786,6.674869007977195
P00055,2,2023-03-13,71,TUMOR002,8.290838160147374,6.225052503101943
P00055,3,2023-12-04,337,TUMOR002,8.68953899575537,7.146085797682606
P00055,4,2023-08-26,237,TUMOR002,9.464324697881239,6.758927817587239
P00055,5,2023-12-02,335,TUMOR002,8.268432966153727,9.421868596508153
P00055,1,2023-07-30,210,TUMOR003,3.14794367923888,1.2784430399192188
P00055,2,2023-08-01,212,TUMOR003,4.854768830193447,7.472930804089095
P00055,3,2023-01-12,11,TUMOR003,2.7572369133901975,6.172889070030943
P00055,4,2023-03-20,78,TUMOR003,9.76200318136973,9.40216418299245
P00055,5,2023-12-30,363,TUMOR003,8.509225053278676,9.512374152750116
P00056,1,2023-09-10,252,TUMOR001,6.93451784606342,1.0210608749357344
P00056,2,2023-04-13,102,TUMOR001,5.646816068396276,8.65495178858909
P00056,3,2023-05-12,131,TUMOR001,5.492445950681217,8.695703591376134
P00056,4,2023-12-27,360,TUMOR001,3.05265692245548,8.859347766564944
P00056,5,2023-06-02,152,TUMOR001,5.622409189225289,8.02176288187408
P00057,1,2023-03-16,74,TUMOR001,8.690901996672407,0.6266967599189215
P00057,2,2023-11-18,321,TUMOR001,8.548184556293783,3.9364343341020147
P00057,3,2023-09-01,243,TUMOR001,3.2098374907805063,1.3339657379357468
P00057,4,2023-06-21,171,TUMOR001,9.609912851105776,2.4733022700072564
P00057,5,2023-07-25,205,TUMOR001,6.472505377094827,9.71003421456868
P00057,1,2023-05-22,141,TUMOR002,9.096565627630191,1.5636603906146653
P00057,2,2023-11-10,313,TUMOR002,6.751130293103383,7.850835361538857
P00057,3,2023-03-13,71,TUMOR002,3.9756612502183604,2.8212221501708075
P00057,4,2023-05-04,123,TUMOR002,4.264466089004365,6.022323887967594
P00057,5,2023-08-10,221,TUMOR002,2.1990403914711227,1.3689078006432553
P00057,1,2023-08-15,226,TUMOR003,5.196259030924833,1.782968641674997
P00057,2,2023-09-10,252,TUMOR003,6.041801838423444,2.804207695295669
P00057,3,2023-01-10,9,TUMOR003,4.4525752605499225,8.699440572019554
P00057,4,2023-06-17,167,TUMOR003,5.617133344335611,3.500329257048987
P00057,5,2023-02-20,50,TUMOR003,2.6420645456470155,3.0500065679786026
P00057,1,2023-07-15,195,TUMOR004,5.76792299010031,9.438228647927035
P00057,2,2023-09-05,247,TUMOR004,1.9433243047393696,0.743243920772113
P00057,3,2023-03-05,63,TUMOR004,4.801432898603424,7.670371992834459
P00057,4,2023-03-23,81,TUMOR004,4.880608447374711,7.3024921522206805
P00057,5,2023-03-01,59,TUMOR004,1.4335382063553008,1.9799771391401686
P00058,1,2023-08-20,231,TUMOR001,6.425313722207427,1.477224243267527
P00058,2,2023-03-30,88,TUMOR001,8.760958982475586,3.796014657169109
P00058,3,2023-01-09,8,TUMOR001,5.5033310517362946,2.8854417657653975
P00058,4,2023-11-09,312,TUMOR001,0.5264383918468553,7.062851819931168
P00058,5,2023-04-04,93,TUMOR001,5.7466070921570624,4.681118391548375
P00058,1,2023-11-26,329,TUMOR002,1.6300604555069462,4.327330822300656
P00058,2,2023-12-20,353,TUMOR002,4.903353903552772,0.6981806275174391
P00058,3,2023-11-06,309,TUMOR002,4.73037128042926,9.765370653397449
P00058,4,2023-09-24,266,TUMOR002,7.990851226683823,9.080424905049222
P00058,5,2023-11-29,332,TUMOR002,6.1741741273465145,6.4069407637335125
P00058,1,2023-12-06,339,TUMOR003,7.389677577901368,4.117513822021254
P00058,2,2023-09-06,248,TUMOR003,7.288082770760763,5.3237506733510696
P00058,3,2023-12-13,346,TUMOR003,7.724257121251033,3.1363546486273948
P00058,4,2023-01-27,26,TUMOR003,3.696169616150807,7.799859879282266
P00058,5,2023-04-06,95,TUMOR003,4.870972293877391,9.426697731141003
P00059,1,2023-03-08,66,TUMOR001,1.906015296927487,2.682887299649009
P00059,2,2023-03-27,85,TUMOR001,5.033256399804522,5.717089689830192
P00059,3,2023-06-24,174,TUMOR001,3.9095628546272976,4.379796534235879
P00059,4,2023-07-05,185,TUMOR001,3.8668880102336187,7.864226010918432
P00059,5,2023-05-14,133,TUMOR001,7.643122347950891,5.444308448785027
P00060,1,2023-01-07,6,TUMOR001,2.647948146429594,4.377255694878487
P00060,2,2023-04-10,99,TUMOR001,5.485190952240994,5.790930688649273
P00060,3,2023-10-07,279,TUMOR001,5.842366900401814,4.288271761835812
P00060,4,2023-06-18,168,TUMOR001,2.3215449912985235,0.5670510793664104
P00060,5,2023-12-12,345,TUMOR001,5.970610247897122,9.46899734680804
P00060,1,2023-12-26,359,TUMOR002,1.212409688991631,5.122695571912424
P00060,2,2023-06-06,156,TUMOR002,7.808472337963942,4.020306160180414
P00060,3,2023-07-10,190,TUMOR002,5.896881021739407,4.685906099138968
P00060,4,2023-11-08,311,TUMOR002,7.9936252207450185,9.744636998901926
P00060,5,2023-03-09,67,TUMOR002,9.726820245873494,7.71493310199828
P00060,1,2023-10-12,284,TUMOR003,5.913204661802658,2.499874884692641
P00060,2,2023-11-25,328,TUMOR003,7.942006106741239,6.684939672822977
P00060,3,2023-03-19,77,TUMOR003,6.933892937165952,6.680992593041291
P00060,4,2023-05-11,130,TUMOR003,3.441997806298169,5.402615629206094
P00060,5,2023-08-10,221,TUMOR003,8.263047421469338,3.8593083777241177
P00061,1,2023-06-17,167,TUMOR001,1.7640028245823267,6.260384936864533
P00061,2,2023-02-04,34,TUMOR001,7.873236014831138,9.36814584831909
P00061,3,2023-06-22,172,TUMOR001,5.019800871364607,4.626712757605093
P00061,4,2023-04-28,117,TUMOR001,9.253859175713746,7.369388563515126
P00061,5,2023-11-12,315,TUMOR001,4.506550635377194,2.8688690962846266
P00062,1,2023-03-22,80,TUMOR001,1.7799797723928905,6.22015678658355
P00062,2,2023-07-10,190,TUMOR001,6.84229743958643,4.479103297426059
P00062,3,2023-11-07,310,TUMOR001,1.6382383601229158,9.194543493082435
P00062,4,2023-06-04,154,TUMOR001,5.630159588870964,6.5941514377968815
P00062,5,2023-09-16,258,TUMOR001,5.871365688787704,6.179510410681069
P00062,1,2023-02-25,55,TUMOR002,1.0457071755548624,4.914804233144474
P00062,2,2023-02-08,38,TUMOR002,1.6844601997428525,6.20779446612892
P00062,3,2023-04-18,107,TUMOR002,8.83512692988983,9.974119645282864
P00062,4,2023-02-06,36,TUMOR002,3.822215036079341,2.3802348532592843
P00062,5,2023-06-29,179,TUMOR002,1.2245714065046671,5.470261989880742
P00062,1,2023-01-01,0,TUMOR003,3.2393096761305555,9.342608612080804
P00062,2,2023-02-07,37,TUMOR003,5.7764526110217895,5.811873752258202
P00062,3,2023-02-25,55,TUMOR003,4.714161819850313,7.29359090697476
P00062,4,2023-03-22,80,TUMOR003,7.44632033023399,4.75788060988461
P00062,5,2023-10-27,299,TUMOR003,6.1895145356683905,8.688485431283981
P00062,1,2023-04-20,109,TUMOR004,5.539477485499023,6.556811432205358
P00062,2,2023-06-14,164,TUMOR004,1.4876694978827651,8.668967356927952
P00062,3,2023-08-02,213,TUMOR004,5.899387977911072,3.635054280875166
P00062,4,2023-03-20,78,TUMOR004,5.354368156076913,4.583993044900867
P00062,5,2023-05-24,143,TUMOR004,3.941529757692513,7.688320418463822
P00063,1,2023-11-30,333,TUMOR001,9.34271986479239,3.146569375813388
P00063,2,2023-10-21,293,TUMOR001,1.2586461827321624,7.260922301505895
P00063,3,2023-11-08,311,TUMOR001,2.8874647707162917,6.406166662465971
P00063,4,2023-05-29,148,TUMOR001,6.061119251417465,4.848097025645063
P00063,5,2023-07-05,185,TUMOR001,6.428139047535117,4.744482881047351
P00063,1,2023-05-08,127,TUMOR002,6.627410536525477,3.9476671137812898
P00063,2,2023-03-19,77,TUMOR002,4.717053475538393,6.405753793848766
P00063,3,2023-01-25,24,TUMOR002,7.63940875941065,1.7878638658712944
P00063,4,2023-09-30,272,TUMOR002,1.1990720202148426,3.5987575628951136
P00063,5,2023-06-05,155,TUMOR002,5.4083346225952775,3.6971414596798216
P00063,1,2023-03-19,77,TUMOR003,3.083084267294017,2.1864221144193463
P00063,2,2023-10-18,290,TUMOR003,7.251283274271144,9.086456479352503
P00063,3,2023-03-11,69,TUMOR003,8.572351997491708,8.737006093450107
P00063,4,2023-04-09,98,TUMOR003,9.498721490529096,0.5661100885682622
P00063,5,2023-02-22,52,TUMOR003,0.5990517566579214,1.0295621397604495
P00064,1,2023-01-13,12,TUMOR001,9.007599278053338,9.22186625178113
P00064,2,2023-01-08,7,TUMOR001,8.882992665973884,5.6147297388588235
P00064,3,2023-03-31,89,TUMOR001,8.828552669984457,4.335611787055295
P00064,4,2023-06-24,174,TUMOR001,1.9920354935382045,7.254426163370822
P00064,5,2023-01-25,24,TUMOR001,4.819694939198666,7.911297014785627
P00064,1,2023-12-17,350,TUMOR002,8.75652477743462,0.7227190684693475
P00064,2,2023-12-01,334,TUMOR002,8.059473767609187,7.770221220385508
P00064,3,2023-03-05,63,TUMOR002,1.6934579481813206,6.00263835363423
P00064,4,2023-02-05,35,TUMOR002,6.404487757186288,8.902431980815042
P00064,5,2023-07-27,207,TUMOR002,4.533875865243886,5.19518679332398
P00064,1,2023-04-22,111,TUMOR003,9.889852700876856,7.403557097461798
P00064,2,2023-05-04,123,TUMOR003,3.430780203584599,9.138355822806567
P00064,3,2023-09-26,268,TUMOR003,3.0471035831586146,4.789906816724826
P00064,4,2023-08-29,240,TUMOR003,2.2225506033277345,1.924484824969572
P00064,5,2023-08-29,240,TUMOR003,6.584443002536131,9.862876142132828
P00064,1,2023-10-29,301,TUMOR004,9.473032767268297,0.91699608451103
P00064,2,2023-11-06,309,TUMOR004,7.671601646376993,1.2590221040410985
P00064,3,2023-11-16,319,TUMOR004,9.701669499034548,0.5544390676285227
P00064,4,2023-03-24,82,TUMOR004,7.744851463463875,9.850264055907942
P00064,5,2023-06-08,158,TUMOR004,3.1722526045277313,8.343558242642322
P00065,1,2023-04-29,118,TUMOR001,9.906167267942442,8.655478336088501
P00065,2,2023-07-18,198,TUMOR001,6.63408220011322,3.845420026782087
P00065,3,2023-06-22,172,TUMOR001,1.521113046447776,6.876179098471376
P00065,4,2023-08-11,222,TUMOR001,6.749920083605413,7.114278390885642
P00065,5,2023-07-27,207,TUMOR001,4.326819553894255,4.985716726544107
P00065,1,2023-06-15,165,TUMOR002,9.752112232214504,5.296200280397109
P00065,2,2023-09-15,257,TUMOR002,7.850364883794165,1.5103197244214108
P00065,3,2023-09-09,251,TUMOR002,6.7251244370594145,7.516973580045
P00065,4,2023-01-18,17,TUMOR002,0.7970336052861007,8.504695533338776
P00065,5,2023-07-30,210,TUMOR002,7.293020164546444,6.35867875139633
P00065,1,2023-09-09,251,TUMOR003,3.8605289244271668,3.532534092906741
P00065,2,2023-01-26,25,TUMOR003,6.787555325585251,5.851737781269417
P00065,3,2023-06-01,151,TUMOR003,5.74166049855229,9.53139583707864
P00065,4,2023-07-01,181,TUMOR003,8.038898332775112,9.629942126426531
P00065,5,2023-12-15,348,TUMOR003,3.664715879609157,2.3319993529309375
P00065,1,2023-10-03,275,TUMOR004,3.779514709850378,9.058968574186707
P00065,2,2023-03-29,87,TUMOR004,2.856885392186546,6.515036046751993
P00065,3,2023-11-14,317,TUMOR004,4.9133566796641315,0.9956543836648242
P00065,4,2023-02-17,47,TUMOR004,3.743209903524177,2.5027293857440753
P00065,5,2023-10-09,281,TUMOR004,2.4586550207838833,4.332010405301038
P00065,1,2023-11-24,327,TUMOR005,7.473369357527466,1.6596173255142157
P00065,2,2023-09-30,272,TUMOR005,6.193487908873699,0.6692780590048333
P00065,3,2023-06-28,178,TUMOR005,7.132603797441421,2.16603623031921
P00065,4,2023-04-19,108,TUMOR005,8.30405884458548,1.2538904321011402
P00065,5,2023-07-29,209,TUMOR005,8.10358240656824,9.029731228920117
P00066,1,2023-04-07,96,TUMOR001,6.715179829225336,2.5061598604410866
P00066,2,2023-09-23,265,TUMOR001,8.261105853217106,5.079041724368626
P00066,3,2023-11-14,317,TUMOR001,2.1828481128319313,9.571858985437583
P00066,4,2023-10-25,297,TUMOR001,9.108721770385074,7.284449499219731
P00066,5,2023-05-21,140,TUMOR001,3.9382443093006714,7.299339672461457
P00066,1,2023-05-18,137,TUMOR002,4.965222244684219,6.438303716131502
P00066,2,2023-12-09,342,TUMOR002,5.945824974947385,8.660865344112352
P00066,3,2023-06-27,177,TUMOR002,9.033085355739862,5.049008764505471
P00066,4,2023-07-27,207,TUMOR002,4.489629672397831,7.638095000075148
P00066,5,2023-10-07,279,TUMOR002,0.6737460640131683,9.633304112078017
P00066,1,2023-04-06,95,TUMOR003,4.071942126323178,0.7559420911412607
P00066,2,2023-06-21,171,TUMOR003,0.6914702765547417,0.5943612688465091
P00066,3,2023-03-30,88,TUMOR003,2.7175328704392854,6.3207371563591614
P00066,4,2023-11-12,315,TUMOR003,6.64933374198967,4.65222298805133
P00066,5,2023-01-17,16,TUMOR003,3.5898207328587404,0.7744124719601239
P00067,1,2023-02-12,42,TUMOR001,7.695995894911915,5.508726623394723
P00067,2,2023-01-27,26,TUMOR001,9.16156513228236,9.046868973788369
P00067,3,2023-10-27,299,TUMOR001,6.34835115494258,8.718628959812351
P00067,4,2023-09-25,267,TUMOR001,2.771889671326239,7.823137816618081
P00067,5,2023-05-07,126,TUMOR001,4.321640290258743,5.398088068134495
P00067,1,2023-04-25,114,TUMOR002,4.64310836838122,4.890715168542727
P00067,2,2023-08-26,237,TUMOR002,4.219712041563469,4.778784247735028
P00067,3,2023-07-18,198,TUMOR002,3.651715433525231,3.711008083526603
P00067,4,2023-02-12,42,TUMOR002,4.171061604729641,5.895887221750338
P00067,5,2023-10-05,277,TUMOR002,6.328245322250644,5.4689223682144705
P00068,1,2023-04-04,93,TUMOR001,8.433329920656096,9.41194269892116
P00068,2,2023-03-06,64,TUMOR001,3.0061219264206027,4.06076339249725
P00068,3,2023-02-06,36,TUMOR001,0.8970170457362565,5.8461781183152
P00068,4,2023-12-31,364,TUMOR001,1.4360968215194787,1.4928403994096058
P00068,5,2023-01-09,8,TUMOR001,7.368564953070864,7.7858374912740205
P00069,1,2023-10-19,291,TUMOR001,1.018053294899014,6.249249235625597
P00069,2,2023-11-14,317,TUMOR001,5.373296847809657,5.133573945641048
P00069,3,2023-07-02,182,TUMOR001,8.605652270253792,4.692460161851329
P00069,4,2023-08-16,227,TUMOR001,6.921025471082126,7.391931866445223
P00069,5,2023-07-25,205,TUMOR001,0.7170327455002827,8.352235204774095
P00069,1,2023-10-23,295,TUMOR002,7.221106835297762,6.563495509674599
P00069,2,2023-03-26,84,TUMOR002,3.9032757269347282,9.094645624113504
P00069,3,2023-02-07,37,TUMOR002,4.072524094867775,5.9358152189650095
P00069,4,2023-01-15,14,TUMOR002,4.624570053328967,7.561973717945646
P00069,5,2023-04-04,93,TUMOR002,5.739968498218017,8.820965722829065
P00069,1,2023-07-19,199,TUMOR003,9.099804788011259,3.1280478958113833
P00069,2,2023-02-09,39,TUMOR003,3.156512451115895,5.2019636915844885
P00069,3,2023-05-21,140,TUMOR003,4.0024696872644645,1.1868385429766735
P00069,4,2023-10-18,290,TUMOR003,7.270585921125895,1.4659083553361687
P00069,5,2023-10-25,297,TUMOR003,7.11699869981735,5.8030552561145115
P00069,1,2023-10-26,298,TUMOR004,4.319168389052629,5.487223972824281
P00069,2,2023-10-11,283,TUMOR004,9.365470088478116,8.242489559641312
P00069,3,2023-08-14,225,TUMOR004,0.9624105234492476,1.4636696408930274
P00069,4,2023-12-06,339,TUMOR004,2.429443471197194,9.496332107639999
P00069,5,2023-10-14,286,TUMOR004,8.928114044682065,4.790296559865538
P00069,1,2023-04-21,110,TUMOR005,6.1825135692621,2.245432798391679
P00069,2,2023-02-27,57,TUMOR005,2.421808655382967,4.480000074260788
P00069,3,2023-09-24,266,TUMOR005,7.782007030541908,9.984655147298822
P00069,4,2023-01-04,3,TUMOR005,5.263765177150036,6.732629703607053
P00069,5,2023-06-12,162,TUMOR005,6.679077751363627,9.571329453436537
P00070,1,2023-05-03,122,TUMOR001,0.5089952342373774,3.311259044560611
P00070,2,2023-03-11,69,TUMOR001,0.7612509504215474,9.360214741707718
P00070,3,2023-05-20,139,TUMOR001,2.6646395193339303,9.154625845283794
P00070,4,2023-09-25,267,TUMOR001,0.79470965627501,5.62365569690186
P00070,5,2023-06-06,156,TUMOR001,6.178637617339839,6.887339932360146
P00070,1,2023-07-16,196,TUMOR002,2.3797146801683384,5.574997167715974
P00070,2,2023-07-13,193,TUMOR002,8.018172215205832,3.281273035638362
P00070,3,2023-02-27,57,TUMOR002,2.6220702452623277,5.945435480894379
P00070,4,2023-10-20,292,TUMOR002,6.036859288798165,1.813093904870044
P00070,5,2023-06-05,155,TUMOR002,4.524671202218546,4.268002970414411
P00070,1,2023-04-16,105,TUMOR003,4.373932999446369,9.797135841584492
P00070,2,2023-04-09,98,TUMOR003,2.0236763787689256,4.539491601625258
P00070,3,2023-12-22,355,TUMOR003,8.168690375274588,6.850068922774988
P00070,4,2023-08-28,239,TUMOR003,5.627617092369943,1.3672329685596236
P00070,5,2023-01-23,22,TUMOR003,4.721137215376083,6.776244078044348
P00071,1,2023-05-12,131,TUMOR001,5.937506636737115,6.968460607482919
P00071,2,2023-09-08,250,TUMOR001,5.918830296085332,7.292500738872028
P00071,3,2023-01-01,0,TUMOR001,3.496366281149863,4.4263354974727696
P00071,4,2023-04-03,92,TUMOR001,4.4614709357592455,1.2831623213635113
P00071,5,2023-08-12,223,TUMOR001,6.579609868728899,6.1069744662623675
P00071,1,2023-06-20,170,TUMOR002,5.988366312914985,6.352465992332464
P00071,2,2023-11-12,315,TUMOR002,7.6649866539462925,9.606027449838018
P00071,3,2023-05-23,142,TUMOR002,6.0789774334475215,5.068517169294248
P00071,4,2023-09-06,248,TUMOR002,6.745038025451356,3.1771772367072035
P00071,5,2023-05-08,127,TUMOR002,0.583599166789857,0.6972192494599949
P00072,1,2023-02-28,58,TUMOR001,3.989300886707981,6.221321952249426
P00072,2,2023-12-09,342,TUMOR001,9.369489294105344,1.6875032706192423
P00072,3,2023-06-28,178,TUMOR001,1.831176499398267,3.8964214411026723
P00072,4,2023-05-22,141,TUMOR001,8.041980792225019,8.742603819124042
P00072,5,2023-07-22,202,TUMOR001,5.466683267528728,8.5385664464472
P00072,1,2023-02-11,41,TUMOR002,7.6573058063135395,8.610931836959578
P00072,2,2023-04-16,105,TUMOR002,2.8528662874997828,7.0104583334564134
P00072,3,2023-08-16,227,TUMOR002,1.9592053088647696,5.002111239098408
P00072,4,2023-05-26,145,TUMOR002,9.669823241553871,9.015252813668841
P00072,5,2023-01-01,0,TUMOR002,1.186742530179448,9.571780234132035
P00072,1,2023-07-20,200,TUMOR003,3.6680703804286225,2.5575982927154373
P00072,2,2023-09-22,264,TUMOR003,1.5410311953593907,4.85548891966392
P00072,3,2023-01-16,15,TUMOR003,2.225028004705215,1.242297031380505
P00072,4,2023-10-29,301,TUMOR003,6.772252936690212,6.646658280589842
P00072,5,2023-01-04,3,TUMOR003,9.002187162141185,8.594049540204297
P00073,1,2023-12-31,364,TUMOR001,6.731684853693987,8.084572428438836
P00073,2,2023-12-05,338,TUMOR001,7.680870750597276,0.6681668447972469
P00073,3,2023-07-06,186,TUMOR001,1.1238572304977557,6.725651139501197
P00073,4,2023-12-02,335,TUMOR001,1.1014138692930722,2.449422608062044
P00073,5,2023-07-30,210,TUMOR001,5.012348069074509,8.257617243658006
P00073,1,2023-11-12,315,TUMOR002,6.641041811339167,9.694698589659058
P00073,2,2023-03-12,70,TUMOR002,9.82796803243721,8.392770096032105
P00073,3,2023-08-02,213,TUMOR002,7.987982678871722,2.804157716710081
P00073,4,2023-11-09,312,TUMOR002,5.42822959678844,7.170079972788879
P00073,5,2023-03-31,89,TUMOR002,8.316178165844184,3.765226308802773
P00074,1,2023-02-28,58,TUMOR001,8.112588418766695,3.4206611438660968
P00074,2,2023-05-07,126,TUMOR001,7.742456436180488,0.634416304219535
P00074,3,2023-04-23,112,TUMOR001,9.073706587462295,6.490260018823579
P00074,4,2023-09-13,255,TUMOR001,6.2532501787490595,3.0259050548791615
P00074,5,2023-10-11,283,TUMOR001,2.574786462864225,1.2738723536345182
P00074,1,2023-10-31,303,TUMOR002,7.16307999529124,2.798642795963352
P00074,2,2023-11-12,315,TUMOR002,1.784751888651459,6.608917584407053
P00074,3,2023-09-21,263,TUMOR002,6.849563634957033,2.4459428955369007
P00074,4,2023-10-20,292,TUMOR002,9.848541716049349,0.8410117945809609
P00074,5,2023-05-03,122,TUMOR002,6.894118158246546,9.240653564633027
P00075,1,2023-04-26,115,TUMOR001,6.993268217592504,2.4140912865079973
P00075,2,2023-08-17,228,TUMOR001,2.359943200791058,4.303536260896665
P00075,3,2023-09-13,255,TUMOR001,4.480660820535304,5.234330439951073
P00075,4,2023-04-06,95,TUMOR001,2.7166751046503714,7.225925499920439
P00075,5,2023-05-08,127,TUMOR001,1.9678080787580672,6.314558180358016
P00075,1,2023-08-27,238,TUMOR002,3.6792826486182886,6.2506776729130005
P00075,2,2023-04-27,116,TUMOR002,6.822706588736741,6.328311876375831
P00075,3,2023-10-02,274,TUMOR002,5.831399351676792,4.574220706167874
P00075,4,2023-12-06,339,TUMOR002,9.203494315297931,4.270467034697381
P00075,5,2023-02-15,45,TUMOR002,9.88469857208092,2.5521619064739545
P00075,1,2023-09-06,248,TUMOR003,8.94696475069036,7.189734678325261
P00075,2,2023-01-09,8,TUMOR003,8.733060390022438,0.7513407343932191
P00075,3,2023-04-02,91,TUMOR003,0.8972555778438873,9.930819807812323
P00075,4,2023-09-16,258,TUMOR003,7.93148122368244,5.337135841373944
P00075,5,2023-04-29,118,TUMOR003,2.0232857742804202,2.922037315122867
P00076,1,2023-12-01,334,TUMOR001,5.322682434388341,6.461346027450403
P00076,2,2023-10-19,291,TUMOR001,1.3674060942538702,7.4111452088878575
P00076,3,2023-07-05,185,TUMOR001,2.770290162290857,6.773849433344394
P00076,4,2023-06-05,155,TUMOR001,3.7222141786860825,2.52361972332406
P00076,5,2023-09-01,243,TUMOR001,7.4485926860601825,3.4505080701511455
P00077,1,2023-11-21,324,TUMOR001,8.306974451789229,9.356372861156686
P00077,2,2023-09-21,263,TUMOR001,6.889761062183707,6.068473664155116
P00077,3,2023-08-28,239,TUMOR001,4.367338543591011,4.125557489124507
P00077,4,2023-07-04,184,TUMOR001,9.799304675806836,1.2353924380479113
P00077,5,2023-03-07,65,TUMOR001,3.1197125979210316,4.519222206126489
P00077,1,2023-09-07,249,TUMOR002,2.4767126886296795,7.485358045867477
P00077,2,2023-09-11,253,TUMOR002,4.160431880501108,5.897437370175135
P00077,3,2023-11-20,323,TUMOR002,1.21490930456696,4.437296633459482
P00077,4,2023-01-10,9,TUMOR002,4.9879055474510166,1.249604733019772
P00077,5,2023-03-21,79,TUMOR002,8.825038848313389,7.757922862392701
P00077,1,2023-08-21,232,TUMOR003,2.8011655724425926,5.930828364327373
P00077,2,2023-10-15,287,TUMOR003,2.463973740133728,4.418177893317004
P00077,3,2023-09-13,255,TUMOR003,3.084534419079836,8.32507912870592
P00077,4,2023-04-24,113,TUMOR003,8.49612123573363,6.528858520781843
P00077,5,2023-07-23,203,TUMOR003,4.127347388795226,1.8032709635906743
P00078,1,2023-11-17,320,TUMOR001,7.754794307791872,1.4938450764373719
P00078,2,2023-12-16,349,TUMOR001,9.635257765884683,2.692216523059821
P00078,3,2023-06-06,156,TUMOR001,0.8806334152727199,0.541008272653562
P00078,4,2023-09-27,269,TUMOR001,9.107902140908358,5.616647871516536
P00078,5,2023-04-25,114,TUMOR001,1.6292839725757813,9.038508112012229
P00078,1,2023-01-12,11,TUMOR002,5.827501087729621,0.6009321362166726
P00078,2,2023-07-26,206,TUMOR002,1.525750355498501,5.767463885131908
P00078,3,2023-07-02,182,TUMOR002,7.158481889587393,5.179963175487112
P00078,4,2023-05-18,137,TUMOR002,6.359057571298419,8.587806372770107
P00078,5,2023-10-24,296,TUMOR002,9.792832267862149,1.2840939158066362
P00078,1,2023-11-03,306,TUMOR003,3.072535146644879,6.38736878267542
P00078,2,2023-07-05,185,TUMOR003,3.2483042995690865,0.5385016108053667
P00078,3,2023-02-20,50,TUMOR003,8.340653058274853,8.075605651952934
P00078,4,2023-08-14,225,TUMOR003,1.0704078545287639,4.829329876044679
P00078,5,2023-12-25,358,TUMOR003,1.3192996375696078,9.554853163441205
P00078,1,2023-10-19,291,TUMOR004,0.5398392900371636,3.3805720547089666
P00078,2,2023-07-22,202,TUMOR004,1.7092575066505225,3.082872778069413
P00078,3,2023-08-06,217,TUMOR004,9.729561932298587,4.214973994687272
P00078,4,2023-04-20,109,TUMOR004,7.950071650384557,6.507937717423708
P00078,5,2023-09-25,267,TUMOR004,9.753902236550966,8.401234398451653
P00078,1,2023-08-07,218,TUMOR005,6.750796190680642,2.147075404922165
P00078,2,2023-03-11,69,TUMOR005,7.890977333976762,6.764292381709339
P00078,3,2023-09-16,258,TUMOR005,7.195861567573356,2.0214919958662185
P00078,4,2023-01-12,11,TUMOR005,9.521766534497692,8.548965327820635
P00078,5,2023-12-26,359,TUMOR005,9.337854762933118,7.121003950948069
P00079,1,2023-01-10,9,TUMOR001,3.8649179975118635,8.086920685288838
P00079,2,2023-08-19,230,TUMOR001,8.519098976194066,3.2207456918554183
P00079,3,2023-02-06,36,TUMOR001,1.4645510354459863,8.247231356076593
P00079,4,2023-03-14,72,TUMOR001,0.8553270345493695,2.8330498386936407
P00079,5,2023-06-03,153,TUMOR001,3.651205803838025,1.552202259078086
P00079,1,2023-01-27,26,TUMOR002,1.0394613360073075,4.543472647247288
P00079,2,2023-10-18,290,TUMOR002,1.6475644570816388,4.315487954360795
P00079,3,2023-07-31,211,TUMOR002,9.222346445384572,4.69855664681916
P00079,4,2023-06-28,178,TUMOR002,1.9706324511167952,2.6864503200562893
P00079,5,2023-07-23,203,TUMOR002,2.9490163452988085,8.96072666014029
P00079,1,2023-02-01,31,TUMOR003,8.987966714540903,7.305008560440077
P00079,2,2023-11-07,310,TUMOR003,6.898592068603671,8.874271330102278
P00079,3,2023-08-14,225,TUMOR003,8.134562582747137,9.494130820885568
P00079,4,2023-11-23,326,TUMOR003,7.251174759826913,1.8285139112834319
P00079,5,2023-04-13,102,TUMOR003,8.144146365239271,8.22997244612576
P00080,1,2023-04-10,99,TUMOR001,5.24009936696022,7.845972844943632
P00080,2,2023-11-21,324,TUMOR001,8.513485320979171,3.613262173525529
P00080,3,2023-04-06,95,TUMOR001,5.493354358734961,2.1058645953128696
P00080,4,2023-04-02,91,TUMOR001,5.528381170648162,6.054192493031205
P00080,5,2023-01-11,10,TUMOR001,1.2697374824296817,4.414859616111549
P00081,1,2023-03-20,78,TUMOR001,3.811762287859531,4.491388832338216
P00081,2,2023-12-23,356,TUMOR001,7.1791453292397565,8.212783874263668
P00081,3,2023-12-16,349,TUMOR001,1.8996515779964014,7.342670771086136
P00081,4,2023-01-21,20,TUMOR001,2.224768001933424,6.46067666429358
P00081,5,2023-10-10,282,TUMOR001,9.904034141422333,4.35360503911725
P00081,1,2023-08-05,216,TUMOR002,8.066485832658318,9.646458222343062
P00081,2,2023-09-02,244,TUMOR002,8.103519524424275,9.680270309352492
P00081,3,2023-08-21,232,TUMOR002,8.718236684878457,9.39310411935132
P00081,4,2023-10-02,274,TUMOR002,0.5497530776994186,2.983764542849794
P00081,5,2023-01-03,2,TUMOR002,0.9052677749313165,5.475107933638111
P00081,1,2023-03-27,85,TUMOR003,6.819694640979449,9.055751204238211
P00081,2,2023-09-05,247,TUMOR003,8.426730074006624,2.2611350701258646
P00081,3,2023-05-03,122,TUMOR003,3.352269050014069,6.934307173858279
P00081,4,2023-07-03,183,TUMOR003,1.830514980570864,3.8333412776634552
P00081,5,2023-12-21,354,TUMOR003,7.614841238076366,6.735446551712674
P00081,1,2023-09-21,263,TUMOR004,4.584569259990774,9.404958548829834
P00081,2,2023-10-17,289,TUMOR004,5.352613468424393,0.6144668439280547
P00081,3,2023-11-23,326,TUMOR004,9.046927990267992,6.8380863713581
P00081,4,2023-04-23,112,TUMOR004,1.1854431052930805,3.2112344654090057
P00081,5,2023-08-14,225,TUMOR004,3.1636244403726796,8.286952740065246
P00082,1,2023-05-25,144,TUMOR001,1.160213880983814,6.503373419916697
P00082,2,2023-02-25,55,TUMOR001,3.1157791094007585,6.554637585678926
P00082,3,2023-06-06,156,TUMOR001,2.212003986402902,8.481338591914492
P00082,4,2023-05-24,143,TUMOR001,2.3075715211771373,8.940802399469746
P00082,5,2023-03-30,88,TUMOR001,4.293295634048032,0.5166134147450117
P00082,1,2023-10-27,299,TUMOR002,2.2462641596492974,2.9086771121792783
P00082,2,2023-02-16,46,TUMOR002,2.189213899414036,1.4219409232710394
P00082,3,2023-09-17,259,TUMOR002,6.117829286669352,5.361480488201874
P00082,4,2023-11-08,311,TUMOR002,1.9296141295687685,8.916311672259868
P00082,5,2023-05-27,146,TUMOR002,5.087696591831897,2.135820192392518
P00082,1,2023-03-30,88,TUMOR003,9.526040723889693,1.522168944619768
P00082,2,2023-01-27,26,TUMOR003,6.37935839850295,1.0258035045926257
P00082,3,2023-07-12,192,TUMOR003,9.978177202560392,6.339203796123819
P00082,4,2023-06-03,153,TUMOR003,6.14863427799255,9.996700643809413
P00082,5,2023-03-02,60,TUMOR003,1.0139512342792512,0.7349358076963838
P00082,1,2023-09-19,261,TUMOR004,2.698122925824241,3.9967559109044157
P00082,2,2023-03-24,82,TUMOR004,7.361679022386927,3.9482813823334406
P00082,3,2023-08-25,236,TUMOR004,8.163642563028604,9.097759497527962
P00082,4,2023-08-23,234,TUMOR004,8.39768860839528,8.064601765904793
P00082,5,2023-04-29,118,TUMOR004,1.0618072760413353,5.434132843421453
P00082,1,2023-12-12,345,TUMOR005,4.1583804421720885,9.113796229217767
P00082,2,2023-04-03,92,TUMOR005,8.367268667610489,6.883099562689262
P00082,3,2023-06-16,166,TUMOR005,3.920570336086653,4.174831001989441
P00082,4,2023-04-28,117,TUMOR005,8.929082994196355,1.3142374346825867
P00082,5,2023-08-28,239,TUMOR005,2.205737572651063,3.9850705178245263
P00083,1,2023-12-01,334,TUMOR001,0.524333363126547,2.910987488148843
P00083,2,2023-05-16,135,TUMOR001,8.139031585519518,6.533382848997438
P00083,3,2023-12-14,347,TUMOR001,7.111144122581783,4.910247823053004
P00083,4,2023-09-24,266,TUMOR001,3.616976318801058,5.604771738072014
P00083,5,2023-01-25,24,TUMOR001,2.8303422720462352,4.900018224516868
P00084,1,2023-12-19,352,TUMOR001,1.7262768965116941,4.551361171110849
P00084,2,2023-02-03,33,TUMOR001,3.80026654078375,8.68968681753745
P00084,3,2023-02-22,52,TUMOR001,7.68341828095703,5.4825078809633485
P00084,4,2023-11-26,329,TUMOR001,1.1919367442344018,2.186396076373847
P00084,5,2023-03-30,88,TUMOR001,5.620924477019245,9.716228546942862
P00084,1,2023-03-27,85,TUMOR002,6.467546372435246,3.5244117299720763
P00084,2,2023-12-20,353,TUMOR002,7.995952089348395,3.5696527522816566
P00084,3,2023-03-12,70,TUMOR002,2.2702980513140902,2.0809689554109485
P00084,4,2023-08-15,226,TUMOR002,1.0775478080171759,9.293616170906946
P00084,5,2023-05-01,120,TUMOR002,3.8414559441138256,2.2783490087682603
P00085,1,2023-08-06,217,TUMOR001,2.540632792970004,9.069726282152748
P00085,2,2023-01-15,14,TUMOR001,9.455581160832388,8.665616423260966
P00085,3,2023-03-26,84,TUMOR001,0.7450854766257253,1.8862111978410236
P00085,4,2023-06-22,172,TUMOR001,1.3452248371545905,3.0700718271003966
P00085,5,2023-07-20,200,TUMOR001,3.172965944206231,1.506138826272395
P00086,1,2023-11-20,323,TUMOR001,7.715297382120066,3.4968087810172133
P00086,2,2023-03-30,88,TUMOR001,3.887973602875217,5.4010010791948115
P00086,3,2023-05-15,134,TUMOR001,4.364909238913096,3.316601980026851
P00086,4,2023-01-03,2,TUMOR001,2.6085592817285557,1.4547351147576433
P00086,5,2023-06-22,172,TUMOR001,2.3669727331657326,0.5361906934986003
P00086,1,2023-02-05,35,TUMOR002,4.95022239026075,4.133380319979078
P00086,2,2023-09-13,255,TUMOR002,5.131490528184928,1.4357090227649751
P00086,3,2023-11-12,315,TUMOR002,9.906470614143883,9.930365649600265
P00086,4,2023-02-17,47,TUMOR002,7.833343301407071,5.1316111016929895
P00086,5,2023-08-13,224,TUMOR002,4.4885353854072285,2.9268856555675495
P00086,1,2023-02-07,37,TUMOR003,1.0356576024734263,9.928122347669573
P00086,2,2023-10-20,292,TUMOR003,8.216911979371499,3.8982173602648484
P00086,3,2023-01-02,1,TUMOR003,5.133634071595943,3.309211649728947
P00086,4,2023-03-31,89,TUMOR003,1.1577203905714013,3.69450114271711
P00086,5,2023-06-24,174,TUMOR003,9.404521630792157,5.4742333384602
P00087,1,2023-10-20,292,TUMOR001,1.5450625082420113,3.222897336132463
P00087,2,2023-04-16,105,TUMOR001,9.048973073208638,5.1143664162096
P00087,3,2023-06-27,177,TUMOR001,7.089883990605419,2.024087798157524
P00087,4,2023-08-26,237,TUMOR001,1.579653544956923,6.855236431783648
P00087,5,2023-04-14,103,TUMOR001,9.91989942459733,9.114885943129694
P00087,1,2023-11-14,317,TUMOR002,7.085590164349951,8.192612709982296
P00087,2,2023-12-03,336,TUMOR002,8.061501793020689,6.982498094155604
P00087,3,2023-05-06,125,TUMOR002,7.528149569004649,1.573328626582088
P00087,4,2023-06-21,171,TUMOR002,2.972825294323992,9.879725865615606
P00087,5,2023-10-02,274,TUMOR002,1.5108736172870052,1.578895112656578
P00087,1,2023-02-09,39,TUMOR003,4.810371493115142,0.6558071584094295
P00087,2,2023-07-20,200,TUMOR003,5.053776714453585,6.238633668298215
P00087,3,2023-03-08,66,TUMOR003,7.293123472198267,0.8196748515099774
P00087,4,2023-10-21,293,TUMOR003,1.2683004873266068,3.3547187558159015
P00087,5,2023-04-30,119,TUMOR003,6.326981203778561,4.5748033233004515
P00088,1,2023-01-21,20,TUMOR001,3.386045645365248,0.8972143617846022
P00088,2,2023-10-10,282,TUMOR001,1.1054391379075719,6.774476553746834
P00088,3,2023-08-01,212,TUMOR001,7.5754726983840035,8.173454289093545
P00088,4,2023-03-19,77,TUMOR001,7.572460862478906,0.6600683380494516
P00088,5,2023-04-09,98,TUMOR001,7.524692964542304,0.8999442138442828
P00088,1,2023-07-25,205,TUMOR002,2.248081637533093,5.131319920940604
P00088,2,2023-05-05,124,TUMOR002,3.093494754773994,4.122679700335411
P00088,3,2023-08-24,235,TUMOR002,5.844832914010099,2.9022907627429833
P00088,4,2023-05-24,143,TUMOR002,0.6837302966490116,2.187546387278627
P00088,5,2023-06-20,170,TUMOR002,3.8537948112572264,1.435766577636026
P00089,1,2023-01-20,19,TUMOR001,6.467670287674333,8.319400219586853
P00089,2,2023-03-04,62,TUMOR001,5.5691306822097015,6.58588414357723
P00089,3,2023-10-15,287,TUMOR001,4.224367152443401,6.267217342976326
P00089,4,2023-05-24,143,TUMOR001,4.020389523977471,7.318994974286178
P00089,5,2023-01-23,22,TUMOR001,7.739338304646241,2.239664308479422
P00089,1,2023-10-21,293,TUMOR002,7.009381998370361,4.061205218105383
P00089,2,2023-01-28,27,TUMOR002,6.107867694015152,7.882746759814107
P00089,3,2023-08-30,241,TUMOR002,4.523176655939002,3.134463007105166
P00089,4,2023-04-03,92,TUMOR002,4.771303766602682,1.5587139041721554
P00089,5,2023-11-04,307,TUMOR002,7.167529474428369,0.9152027229597705
P00089,1,2023-09-06,248,TUMOR003,2.1056701572627965,6.135781172617676
P00089,2,2023-10-27,299,TUMOR003,9.808950220923709,2.5580709050736465
P00089,3,2023-06-18,168,TUMOR003,5.723475650899084,2.0615295411335035
P00089,4,2023-12-28,361,TUMOR003,8.301143558611837,3.9996478236720514
P00089,5,2023-02-15,45,TUMOR003,9.970203731941828,7.225038358892653
P00089,1,2023-11-19,322,TUMOR004,7.819182120631294,1.4382378272143592
P00089,2,2023-09-30,272,TUMOR004,3.943702402057364,4.443477267157328
P00089,3,2023-09-03,245,TUMOR004,4.554489498470062,1.816522621533049
P00089,4,2023-10-15,287,TUMOR004,4.8579032800134945,4.046547144781923
P00089,5,2023-10-21,293,TUMOR004,8.144623179654431,8.892996858300291
P00090,1,2023-11-07,310,TUMOR001,6.746321445801523,1.6077705071030466
P00090,2,2023-01-10,9,TUMOR001,8.419094195974832,4.217629292931461
P00090,3,2023-03-04,62,TUMOR001,6.1128849812301,3.8648374565966854
P00090,4,2023-12-10,343,TUMOR001,6.335275186396823,3.570583765540036
P00090,5,2023-01-01,0,TUMOR001,5.694603893732542,8.060356681725468
P00090,1,2023-03-05,63,TUMOR002,2.1174851600066686,1.860015961641884
P00090,2,2023-01-06,5,TUMOR002,9.960314680426759,3.382826447091871
P00090,3,2023-11-22,325,TUMOR002,0.6969099751371206,4.322323933219648
P00090,4,2023-05-02,121,TUMOR002,3.1263938270780396,0.883769408755495
P00090,5,2023-07-18,198,TUMOR002,4.920315162025825,8.602193216916287
P00090,1,2023-12-19,352,TUMOR003,7.124591643281495,1.6985865164365437
P00090,2,2023-11-01,304,TUMOR003,7.715043032662413,1.9361443537991958
P00090,3,2023-05-20,139,TUMOR003,6.664593819205974,4.116086219141645
P00090,4,2023-03-10,68,TUMOR003,9.99274673434174,7.787339572365117
P00090,5,2023-08-11,222,TUMOR003,5.470657464129643,1.7323899893402355
P00090,1,2023-09-30,272,TUMOR004,7.148262543880779,7.819215208571826
P00090,2,2023-07-08,188,TUMOR004,6.370670596310689,7.906077016865032
P00090,3,2023-12-03,336,TUMOR004,1.817188705695577,9.918713517990158
P00090,4,2023-09-29,271,TUMOR004,3.1500851531952234,7.874762974749699
P00090,5,2023-07-13,193,TUMOR004,8.463115917660982,5.2720638449556105
P00090,1,2023-12-03,336,TUMOR005,8.161255515610113,9.23273632965551
P00090,2,2023-03-14,72,TUMOR005,2.589367889405967,3.2538864746103595
P00090,3,2023-03-29,87,TUMOR005,9.059022685923834,9.125176297088812
P00090,4,2023-08-03,214,TUMOR005,2.168536282406483,5.378031997677904
P00090,5,2023-03-12,70,TUMOR005,1.356331843969419,7.215105442322889
P00091,1,2023-08-11,222,TUMOR001,2.2483997766610884,8.972108656739238
P00091,2,2023-11-07,310,TUMOR001,6.368982556552535,8.107370197275147
P00091,3,2023-02-07,37,TUMOR001,9.841506005255823,3.459875902981405
P00091,4,2023-12-03,336,TUMOR001,0.5619705514075499,4.627256411274688
P00091,5,2023-08-08,219,TUMOR001,7.2553369308180615,1.0229020010180863
P00091,1,2023-09-08,250,TUMOR002,4.833088930762696,0.8004443475734786
P00091,2,2023-09-06,248,TUMOR002,4.52250672247848,9.786583322307722
P00091,3,2023-03-04,62,TUMOR002,1.349468262526762,2.027552596595361
P00091,4,2023-04-25,114,TUMOR002,3.0345132417093534,5.292751983667871
P00091,5,2023-12-17,350,TUMOR002,4.426419517729638,2.464245774456951
P00091,1,2023-10-10,282,TUMOR003,7.766994278419413,6.497687525468977
P00091,2,2023-09-29,271,TUMOR003,8.252686180095544,2.593534618782819
P00091,3,2023-04-19,108,TUMOR003,4.184226995858962,4.822801845896132
P00091,4,2023-07-29,209,TUMOR003,4.316262817190746,6.643923776307415
P00091,5,2023-02-11,41,TUMOR003,2.1389978252182322,5.356409673533565
P00092,1,2023-12-10,343,TUMOR001,1.5826987593365711,1.560720706723579
P00092,2,2023-12-13,346,TUMOR001,1.2938321042059144,9.291618170467807
P00092,3,2023-03-27,85,TUMOR001,2.434982138097087,5.060605238882455
P00092,4,2023-08-05,216,TUMOR001,4.176180704448597,4.149303900294358
P00092,5,2023-04-11,100,TUMOR001,1.0389784002397084,9.293739029827792
P00092,1,2023-09-01,243,TUMOR002,4.676931231849988,1.201242782495323
P00092,2,2023-01-04,3,TUMOR002,3.719506297598616,2.1853710078372144
P00092,3,2023-04-05,94,TUMOR002,5.604984645728053,4.9577753227470875
P00092,4,2023-04-18,107,TUMOR002,6.181821239875076,5.505719690527441
P00092,5,2023-02-27,57,TUMOR002,9.649779346134775,1.9273585610416037
P00092,1,2023-10-28,300,TUMOR003,2.776667471247192,3.8089386257935685
P00092,2,2023-05-27,146,TUMOR003,1.9207319032917662,2.373696639420335
P00092,3,2023-04-20,109,TUMOR003,8.438102105194353,5.934951561997674
P00092,4,2023-10-21,293,TUMOR003,9.849544902492132,2.8191892204938944
P00092,5,2023-03-23,81,TUMOR003,5.582208219107768,3.1268222457361152
P00092,1,2023-05-11,130,TUMOR004,8.51370776623966,1.7155070189598467
P00092,2,2023-04-21,110,TUMOR004,5.784496553974426,2.1026141407719203
P00092,3,2023-06-09,159,TUMOR004,4.039927322442254,3.2730971551939905
P00092,4,2023-06-23,173,TUMOR004,4.1064933739327945,2.088768188557585
P00092,5,2023-09-01,243,TUMOR004,6.418211077072481,6.139137286486235
P00092,1,2023-04-23,112,TUMOR005,0.8229097889151601,3.1587509266577762
P00092,2,2023-08-21,232,TUMOR005,3.0283894046260835,3.517472617045943
P00092,3,2024-01-01,365,TUMOR005,7.392043230974179,5.910356808177932
P00092,4,2023-03-24,82,TUMOR005,6.733006823230382,5.782528353144869
P00092,5,2023-10-03,275,TUMOR005,1.4185660669261246,8.765036615347013
P00093,1,2023-03-20,78,TUMOR001,7.878603695396303,2.3484364407053646
P00093,2,2023-08-19,230,TUMOR001,7.058024791797379,9.484621648346542
P00093,3,2023-10-20,292,TUMOR001,2.9292892712905694,7.176878786393987
P00093,4,2023-02-20,50,TUMOR001,8.55895356924566,1.7482634269103652
P00093,5,2023-03-28,86,TUMOR001,1.9771724641253232,1.6852415409205783
P00094,1,2023-10-29,301,TUMOR001,1.2829196450934068,9.338934012523673
P00094,2,2023-01-12,11,TUMOR001,7.364043316210408,2.437045471846988
P00094,3,2023-06-14,164,TUMOR001,4.746678635726179,8.764630021824495
P00094,4,2023-10-07,279,TUMOR001,0.8286755617421164,2.466608857566656
P00094,5,2023-09-01,243,TUMOR001,5.95969166924293,7.953522575023076
P00094,1,2023-09-15,257,TUMOR002,7.0979960749834055,2.177426373368978
P00094,2,2023-01-24,23,TUMOR002,3.420713748350744,0.8820885796396296
P00094,3,2023-10-17,289,TUMOR002,6.360925258740036,0.524999508146107
P00094,4,2023-12-22,355,TUMOR002,7.106501409443631,9.218793858369724
P00094,5,2023-10-27,299,TUMOR002,2.2456722342708577,3.5353664616432816
P00094,1,2023-10-20,292,TUMOR003,4.078791251853568,3.9335936800626774
P00094,2,2023-01-06,5,TUMOR003,1.0265456982271943,2.6374620489936267
P00094,3,2023-02-26,56,TUMOR003,8.614923576270495,1.4267669066034179
P00094,4,2023-04-01,90,TUMOR003,5.474531290547329,3.3016311456626157
P00094,5,2023-07-03,183,TUMOR003,1.7407734437168236,4.385997312202857
P00094,1,2023-09-12,254,TUMOR004,7.540742318890979,7.72036827570568
P00094,2,2023-04-10,99,TUMOR004,2.3846859769265683,2.1447867253045203
P00094,3,2023-08-14,225,TUMOR004,2.728956904370339,9.859353090454306
P00094,4,2023-03-12,70,TUMOR004,5.837923841114622,2.610664900550522
P00094,5,2023-05-22,141,TUMOR004,2.1172617923963415,3.292183392803011
P00095,1,2023-02-22,52,TUMOR001,5.0858185149112005,9.3797490786331
P00095,2,2023-08-18,229,TUMOR001,6.113940520461277,7.458127107735204
P00095,3,2023-12-10,343,TUMOR001,2.6587088757476263,2.097444587550908
P00095,4,2023-10-18,290,TUMOR001,4.600192513672613,6.5421775838216005
P00095,5,2023-12-11,344,TUMOR001,0.8076840681550588,2.158586187088126
P00095,1,2023-06-17,167,TUMOR002,4.77106238287805,6.578973886350947
P00095,2,2023-09-28,270,TUMOR002,0.7664755281080857,7.41594575106372
P00095,3,2023-10-16,288,TUMOR002,7.404064865189534,1.3386182522416132
P00095,4,2023-03-10,68,TUMOR002,1.958593898457,2.128255662224889
P00095,5,2023-05-11,130,TUMOR002,8.822220814606833,8.859103676650465
P00096,1,2023-02-23,53,TUMOR001,5.220276868552201,2.81804773860256
P00096,2,2023-02-09,39,TUMOR001,7.657395993485685,1.8391826967867797
P00096,3,2023-02-18,48,TUMOR001,6.469321271274099,3.604601765090778
P00096,4,2023-12-21,354,TUMOR001,2.380611110583078,7.826092749078066
P00096,5,2023-04-28,117,TUMOR001,6.465004193711997,1.1443699399734664
P00096,1,2023-05-19,138,TUMOR002,3.0941491035908784,7.220507117031494
P00096,2,2023-08-15,226,TUMOR002,1.7301303696573986,3.4485644947219507
P00096,3,2023-06-06,156,TUMOR002,7.038119004858985,1.3196282579818146
P00096,4,2023-06-18,168,TUMOR002,3.4275798130746766,2.0957247624873303
P00096,5,2023-08-21,232,TUMOR002,8.936851092742398,8.32447349436777
P00096,1,2023-05-20,139,TUMOR003,9.49907926629184,2.6239124664516105
P00096,2,2023-05-21,140,TUMOR003,7.2307924804884065,3.9561638979904954
P00096,3,2023-05-03,122,TUMOR003,3.8402122216381223,2.452581046904502
P00096,4,2023-06-22,172,TUMOR003,2.6255682673101,5.734412383940134
P00096,5,2023-05-20,139,TUMOR003,4.354927514150596,2.2992230131651237
P00097,1,2023-03-22,80,TUMOR001,8.298743846642141,8.72671081247642
P00097,2,2023-03-14,72,TUMOR001,2.909274800157823,9.779109302276153
P00097,3,2023-05-16,135,TUMOR001,6.768737065485299,1.8393977916348823
P00097,4,2023-07-27,207,TUMOR001,5.607543902867464,2.5132455131876266
P00097,5,2023-12-21,354,TUMOR001,9.655314525655907,3.7742768473829496
P00097,1,2023-02-06,36,TUMOR002,1.2569857066293282,2.198497710406961
P00097,2,2023-10-03,275,TUMOR002,4.623558285905145,3.554117215324818
P00097,3,2023-01-31,30,TUMOR002,9.54303256019943,5.406499946454909
P00097,4,2023-11-20,323,TUMOR002,6.285943396269119,3.979940855915623
P00097,5,2023-08-15,226,TUMOR002,8.462930852254551,5.092288339325659
P00097,1,2023-09-16,258,TUMOR003,6.44117167370129,4.243734526339285
P00097,2,2023-10-04,276,TUMOR003,1.9879294607991302,8.095436079129001
P00097,3,2023-06-21,171,TUMOR003,3.864163492117225,8.134608692755478
P00097,4,2023-05-11,130,TUMOR003,7.477104058866486,9.855551636891962
P00097,5,2023-06-13,163,TUMOR003,4.313296625182318,4.477142798765856
P00097,1,2023-06-26,176,TUMOR004,8.69417071472278,9.036207784775486
P00097,2,2023-02-17,47,TUMOR004,3.9429366324953232,4.747679073212284
P00097,3,2023-10-21,293,TUMOR004,3.206099173777628,0.7899577937444946
P00097,4,2023-01-09,8,TUMOR004,2.8856239119637572,0.7357617856416816
P00097,5,2023-10-11,283,TUMOR004,0.5657007298997832,8.760891313641787
P00097,1,2023-06-26,176,TUMOR005,1.4736728028961554,6.2644812010737
P00097,2,2023-02-06,36,TUMOR005,3.945732590893728,7.902989724113032
P00097,3,2024-01-01,365,TUMOR005,6.5660452476413305,0.7548645706456916
P00097,4,2023-05-05,124,TUMOR005,9.319953569698319,3.846725839471354
P00097,5,2023-09-08,250,TUMOR005,7.538178528720831,7.5336639720752565
P00098,1,2023-08-09,220,TUMOR001,6.643252543760838,1.753104191799259
P00098,2,2023-09-25,267,TUMOR001,2.94445130384892,1.5907338610117816
P00098,3,2023-03-17,75,TUMOR001,2.301378552069548,7.158927976566459
P00098,4,2023-12-04,337,TUMOR001,8.04380132322736,7.491860525545846
P00098,5,2023-08-30,241,TUMOR001,8.872584211988142,5.2859872180719645
P00098,1,2023-02-23,53,TUMOR002,2.52679692539838,9.44059954504337
P00098,2,2023-04-25,114,TUMOR002,8.759718707624657,9.19199763518534
P00098,3,2023-12-15,348,TUMOR002,3.527262129484593,8.354291969259345
P00098,4,2023-02-07,37,TUMOR002,6.540840419476446,7.721749015253332
P00098,5,2023-12-20,353,TUMOR002,7.651225367874952,6.0252123471318
P00098,1,2023-09-25,267,TUMOR003,5.174969179555853,2.247227540674457
P00098,2,2023-03-16,74,TUMOR003,2.4983556887928637,5.413279276519618
P00098,3,2023-08-15,226,TUMOR003,5.639517709732869,5.097853297229663
P00098,4,2023-11-23,326,TUMOR003,7.497539416970802,4.849836869048653
P00098,5,2023-01-07,6,TUMOR003,3.474080131278073,4.747583896801752
P00098,1,2023-12-25,358,TUMOR004,5.024028933801289,2.7943175653771393
P00098,2,2023-06-29,179,TUMOR004,6.004864673095246,2.932465306528884
P00098,3,2023-07-25,205,TUMOR004,5.884324974020272,8.942735914255525
P00098,4,2023-07-22,202,TUMOR004,1.7095650355757694,4.765020340085737
P00098,5,2023-07-11,191,TUMOR004,1.4498736761292492,9.197774744586432
P00099,1,2023-08-05,216,TUMOR001,7.11388814371181,1.7522927644800737
P00099,2,2023-04-05,94,TUMOR001,8.94508194430232,1.5781133474715572
P00099,3,2023-01-05,4,TUMOR001,9.558481687763754,4.747783359588433
P00099,4,2023-10-06,278,TUMOR001,7.680852663035119,0.652091357107313
P00099,5,2023-04-25,114,TUMOR001,2.4904006413223123,9.404688180243058
P00099,1,2023-10-23,295,TUMOR002,8.112732519395397,5.565737524142589
P00099,2,2023-07-22,202,TUMOR002,5.09966010183156,9.130720288806645
P00099,3,2023-01-01,0,TUMOR002,3.5931942140869118,2.1948174335448076
P00099,4,2023-09-19,261,TUMOR002,3.398453141183643,6.43863926475868
P00099,5,2023-07-20,200,TUMOR002,1.282981782978953,5.9087243307505934
P00099,1,2023-01-29,28,TUMOR003,4.135692691660321,0.8167006495754852
P00099,2,2023-12-29,362,TUMOR003,1.9055006670026235,3.807953754801979
P00099,3,2023-01-15,14,TUMOR003,0.7682714453421442,8.203736807980333
P00099,4,2023-06-12,162,TUMOR003,2.0087422554325705,6.377359291114649
P00099,5,2023-03-21,79,TUMOR003,9.280062418130269,2.374162406463934
P00099,1,2023-07-25,205,TUMOR004,4.524238894648159,7.254438503972933
P00099,2,2023-09-20,262,TUMOR004,2.350000739826348,8.567475693132362
P00099,3,2023-02-28,58,TUMOR004,4.768013557870905,4.05226635129771
P00099,4,2023-04-10,99,TUMOR004,8.364362359598925,5.126670170633818
P00099,5,2023-11-19,322,TUMOR004,0.7958259713183804,0.7747469173734975
P00100,1,2023-12-03,336,TUMOR001,3.850246109121715,9.444946297561701
P00100,2,2023-10-29,301,TUMOR001,3.175569568860933,5.046040261520677
P00100,3,2023-07-10,190,TUMOR001,3.502634575795417,1.679098970647491
P00100,4,2023-02-13,43,TUMOR001,4.2633540079613,4.595809991923534
P00100,5,2023-08-18,229,TUMOR001,6.591076122769845,5.639043282471232
P00100,1,2023-01-18,17,TUMOR002,1.1726686210246193,2.9072566432860345
P00100,2,2023-01-14,13,TUMOR002,5.478009489772795,4.881414764983644
P00100,3,2023-12-19,352,TUMOR002,1.5897679931372186,5.83418474941755
P00100,4,2023-02-06,36,TUMOR002,0.6568118201977586,5.72141814376387
P00100,5,2023-08-04,215,TUMOR002,5.92428203558871,9.84412848012698
P00100,1,2023-02-11,41,TUMOR003,9.745499695163625,9.860642433931037
P00100,2,2023-07-08,188,TUMOR003,6.182191642883728,4.140665391604681
P00100,3,2023-02-10,40,TUMOR003,1.3435856935325878,1.678634965710385
P00100,4,2023-10-31,303,TUMOR003,8.286315798623693,6.60374465809896
P00100,5,2023-12-01,334,TUMOR003,9.962467010224033,2.57394678896456
P00100,1,2023-12-07,340,TUMOR004,8.809071425672611,6.629682716636232
P00100,2,2023-03-05,63,TUMOR004,6.80288269640446,9.209896758278319
P00100,3,2023-06-05,155,TUMOR004,1.9523023485904059,3.7277325344165697
P00100,4,2023-05-13,132,TUMOR004,2.091496401434363,4.010135782404545
P00100,5,2023-11-02,305,TUMOR004,4.722362594261323,2.652033174011499
P00100,1,2023-07-15,195,TUMOR005,4.430324165657955,5.021998173888456
P00100,2,2023-05-24,143,TUMOR005,3.411193476174575,1.9168552058165498
P00100,3,2023-12-27,360,TUMOR005,0.9158802730156422,4.812510229358522
P00100,4,2023-02-19,49,TUMOR005,9.477760998719367,2.654361555749183
P00100,5,2023-12-07,340,TUMOR005,8.37385046760042,5.377590652947105
